GyroY,MagZ,AngY,MagX,MagY,AngX,AngZ,AccX,AccY,AccZ,Timestamp,GyroZ,GyroX,Tag
0.4882813,179.0083,0.08239746,-97.05,-23.325,106.2927,-3.02124,-0.002441406,0.9526367,-0.3369141,0,-0.24414059999999999,-0.1831055,1
1.220703,0.03333333,-0.2636719,16.43333,-5.658333,106.3092,-2.2796629999999998,-0.0004882813,0.9589844,-0.3398438,382,1.708984,0.3051758,1
-2.01416,-0.1666667,-1.043701,16.50833,-5.533333,105.8862,-2.120361,0.008789063,0.9555663999999999,-0.3242188,1642,0.24414059999999999,-1.7700200000000001,1
-0.6103516,177.325,-1.109619,-99.925,-23.95,105.672,-2.329102,0.024902340000000002,0.9580078,-0.3242188,1832,1.403809,-1.342773,1
2.380371,0.06666667,-1.18103,16.425,-5.425,105.6061,-2.241211,0.01806641,0.9609375,-0.3310547,1992,-0.06103516,-0.9765625,1
2.13623,-0.05,-1.170044,16.575,-5.508333,105.6445,-1.983032,0.015136720000000001,0.9653318999999999,-0.3349609,2152,-0.793457,-0.8544921999999999,1
-1.464844,-0.2666667,-1.07666,16.41667,-5.6,105.4962,-1.94458,0.01660156,0.9643556,-0.315918,2362,-0.3662109,-2.075195,1
2.624512,-0.3416667,-0.8789062999999999,16.45,-5.258333,105.0458,-2.005005,0.024902340000000002,0.9663086,-0.3071289,2572,-1.098633,-1.6479489999999999,1
-1.708984,0.0,-1.016235,16.63333,-5.2,104.6558,-1.884155,0.015136720000000001,0.9672852999999999,-0.3164063,2782,1.037598,-2.319336,1
-0.793457,0.7083332999999999,-1.07666,16.63333,-5.266667,104.7162,-1.999512,0.006835938000000001,0.9663086,-0.3115234,2992,-0.12207029999999999,1.89209,1
-1.6479489999999999,-0.025,-1.257935,16.45,-5.608333,105.3094,-2.219238,0.02001953,0.9687500000000001,-0.3193359,3202,1.953125,1.037598,1
-0.8544921999999999,-0.04166667,-1.246948,16.44167,-5.191667,105.2435,-2.455444,0.01904297,0.9555663999999999,-0.315918,3412,-0.8544921999999999,-0.3662109,1
-0.06103516,0.2166667,-0.9942626999999999,16.45833,-5.558333,105.282,-2.559814,0.009277344,0.9633788999999999,-0.3208008,3612,0.42724609999999996,0.9765625,1
6.591797,0.025,-1.175537,16.325,-5.425,105.5402,-2.224731,0.03613281,0.9638671999999999,-0.3081055,3822,0.6713867,0.9155272,1
-1.098633,168.1583,-1.367798,-108.5083,-27.65,105.4413,-1.5051269999999999,0.0,0.9707030999999999,-0.3369141,4042,0.5493163999999999,-2.624512,1
-0.12207029999999999,0.03333333,-1.373291,16.225,-5.033333,105.0732,-1.279907,0.006835938000000001,0.9741211,-0.32470699999999997,4342,0.6713867,-4.699707,1
2.197266,156.95,-1.400757,-112.45,-33.11666,104.3866,-0.6152344,0.02392578,0.9594727999999999,-0.2851563,4562,-0.8544921999999999,0.8544921999999999,1
-0.9765625,0.05833333,-1.279907,16.48333,-5.466667,104.7052,-1.109619,0.02441406,0.9775391999999999,-0.3051758,4872,0.3662109,1.586914,1
-1.220703,163.3333,-1.257935,-111.75,-28.625,104.9084,-1.499634,0.01855469,0.9589844,-0.3154297,5222,-0.3662109,0.0,1
-2.624512,-0.15,-1.213989,16.43333,-5.625,105.1721,-1.917114,0.02148438,0.9653318999999999,-0.3129883,5542,1.037598,0.6713867,1
0.0,169.3917,-1.043701,-106.7333,-27.55,105.0842,-2.219238,0.01025391,0.9643556,-0.3193359,5832,-0.24414059999999999,0.0,1
2.441406,170.7417,-0.9558105,-107.6583,-26.8,105.1941,-2.285156,0.007324219000000001,0.9633788999999999,-0.3203125,6172,-0.1831055,-2.746582,1
-0.4882813,-0.075,-0.9173583999999999,16.44167,-5.458333,105.3259,-2.367554,0.01464844,0.9619141999999999,-0.3222656,6532,0.6713867,1.403809,1
-0.6103516,0.17500000000000002,-1.043701,16.49167,-4.925,104.8315,-2.455444,0.005859375,0.9555663999999999,-0.30957029999999996,6872,-0.9765625,-1.7700200000000001,1
1.708984,-1.166667,-1.274414,16.44167,-5.258333,105.3479,-1.977539,0.001464844,0.9814453,-0.31787109999999996,7282,0.5493163999999999,4.02832,1
-5.004883,0.36666669999999996,-1.829224,16.81667,-4.833333,103.3759,-0.7415771,0.04833984,0.9624022,-0.28613279999999996,7702,1.953125,-3.356934,1
-0.793457,-0.2583333,-1.757813,16.51667,-4.916667,103.3704,-1.1920169999999999,0.009765625,0.9794921999999999,-0.2836914,8102,-0.3662109,-1.281738,1
-5.615234,0.08333334,-1.494141,16.76667,-4.8,102.8265,-1.999512,0.01269531,0.9809568999999999,-0.2841797,8502,-0.793457,1.281738,1
0.8544921999999999,-0.08333334,-1.120605,16.73333,-4.65,102.8156,-2.977295,0.004394531,0.9687500000000001,-0.2851563,8922,0.12207029999999999,-4.211426,1
-2.685547,-0.125,-1.439209,16.65,-4.7,102.4475,-2.850952,0.005859375,0.984375,-0.2797852,9332,0.6713867,-0.8544921999999999,1
-1.953125,-0.275,-0.38452149999999996,16.7,-4.391667,101.8488,-4.092407,0.008789063,0.9829102999999999,-0.2714844,9762,-4.02832,-1.342773,1
0.4882813,-0.5416667,-0.054931640000000004,16.925,-4.05,100.3601,-3.729858,-0.009277344,0.9926758,-0.2392578,10162,0.1831055,3.417969,1
3.234863,225.5833,-1.159058,-85.98333,-25.5,99.72839,-1.63147,0.01855469,0.9926758,-0.2421875,10592,0.5493163999999999,-1.159668,1
1.464844,227.0417,-1.307373,-87.56667,-23.91667,99.7229,-1.351318,0.01806641,0.9858397,-0.2319336,11082,2.807617,-1.464844,1
1.708984,-0.1416667,-1.757813,16.91667,-3.85,99.42627,-1.027222,0.028808590000000002,0.9912108,-0.23339839999999998,11592,-0.24414059999999999,2.075195,1
2.380371,-0.06666667,-2.340088,16.85833,-3.858333,99.00879,-0.07141113,0.04248047,0.9868163999999999,-0.23339839999999998,12052,2.258301,-1.464844,1
-3.112793,-0.1333333,-4.394531,16.78333,-3.475,98.06396,2.334595,0.1020508,1.869141,-0.37255859999999996,12552,-5.67627,-36.19385,1
0.06103516,0.1083333,-3.614502,16.94167,-3.425,96.55884,2.883911,0.05810547,1.002441,-0.2075195,13072,-0.9765625,1.586914,1
0.24414059999999999,0.2833333,-3.466187,16.85,-3.508333,96.39404,2.971802,0.060546880000000004,0.9946288999999999,-0.20556639999999998,13552,-1.220703,0.9765625,1
0.3051758,136.1417,-3.674927,-122.2417,-0.6583333,96.5863,3.004761,0.06396484,0.9897461,-0.20605469999999998,14102,0.12207029999999999,-2.01416,1
0.24414059999999999,0.008333334000000001,-3.856201,16.96667,-3.45,96.1853,3.092651,0.06640625,0.9912108,-0.206543,14642,-0.4882813,-0.3662109,1
0.24414059999999999,0.09166667,-3.746338,16.93333,-3.5,96.13037,3.164063,0.06298828000000001,0.9921875,-0.2070313,15202,0.3051758,-0.7324219,1
0.06103516,130.2583,-3.867188,-119.5833,0.9833333999999999,95.89417,3.202515,0.06640625,0.9936522,-0.203125,15712,0.3051758,-0.1831055,1
0.0,0.09166667,-3.845215,16.96667,-3.516667,95.92712,3.224487,0.06494141,0.9931641999999999,-0.20605469999999998,16272,0.0,0.0,1
0.06103516,131.225,-3.90564,-118.9,1.925,96.026,3.186035,0.06591797,0.9931641999999999,-0.2084961,16842,0.0,0.0,1
0.06103516,131.0083,-4.01001,-118.525,2.291667,95.67444,3.240967,0.06738281,0.9941405999999999,-0.203125,17452,0.06103516,-0.3662109,1
-0.06103516,130.6417,-4.0979,-118.275,2.75,95.41626,3.273926,0.06787109,0.9941405999999999,-0.1987305,18032,0.24414059999999999,0.6713867,1
0.06103516,0.06666667,-4.229736,16.96667,-3.341667,95.13611,3.323364,0.07177734,0.9956056,-0.1992188,18642,0.12207029999999999,-0.9155272,1
-0.5493163999999999,-0.17500000000000002,-4.394531,16.975,-3.308333,95.28442,3.3673100000000002,0.07470703000000001,0.9916992,-0.2011719,19212,-0.42724609999999996,-1.708984,1
-0.06103516,0.04166667,-4.389038,16.98333,-3.366667,94.95483,3.444214,0.07373047,0.9941405999999999,-0.1992188,19842,0.1831055,0.3662109,1
0.0,127.8333,-4.103394,-117.025,3.066667,95.42175,3.345337,0.06835938,0.9921875,-0.20556639999999998,20472,-0.12207029999999999,-0.6103516,1
-0.3051758,130.0667,-3.867188,-116.9833,3.15,95.49316,3.312378,0.06445313,0.9921875,-0.20947269999999998,21172,-0.9765625,-0.06103516,1
0.3051758,-0.1166667,-3.861694,16.98333,-3.35,94.94385,3.394775,0.06298828000000001,0.9951171999999999,-0.19824219999999998,21832,0.42724609999999996,-0.9765625,1
0.0,0.05,-3.872681,16.98333,-3.441667,94.92188,3.422241,0.06396484,0.9946288999999999,-0.2001953,22502,-0.06103516,0.9765625,1
0.06103516,0.35833329999999997,-3.66394,17.05,-3.558333,95.16357,3.251953,0.06787109,0.9931641999999999,-0.2026367,23202,-0.1831055,1.220703,1
0.12207029999999999,0.03333333,-3.262939,16.93333,-3.6,95.74036,3.109131,0.05175781,0.9916992,-0.21386719999999998,23942,0.0,-0.9155272,1
0.06103516,-0.2,-3.55957,16.94167,-3.608333,95.60303,3.175049,0.05761719,0.9946288999999999,-0.20556639999999998,24632,0.06103516,1.281738,1
-0.06103516,0.1666667,-4.44397,16.93333,-3.483333,95.02625,3.444214,0.07128906,0.9951171999999999,-0.20166019999999998,25372,0.1831055,2.624512,1
0.0,-0.03333333,-4.383545,16.925,-3.6,95.52612,3.383789,0.07421875,0.9916992,-0.2084961,26072,0.0,0.7324219,1
-0.9155272,134.0583,-4.2462159999999995,-115.675,6.583333,96.1084,3.312378,0.06982422,0.9965818999999999,-0.2202148,26812,-2.746582,-0.6713867,1
-2.685547,-5.233333,-3.290405,17.73333,-2.466667,92.02148,-1.18103,0.06542969,1.010254,-0.2001953,27552,0.793457,-34.05762,1
-3.356934,2.641667,-2.839966,17.49167,-0.6666667,88.37402,-0.5108642999999999,0.05566406,1.021973,0.005859375,29432,-0.24414059999999999,25.81787,1
-7.202148,57.58333,-3.208008,10.48333,-93.36667,93.43872,-3.554077,0.06152344,1.003906,-0.1171875,30232,-0.1831055,-0.6103516,1
0.8544921999999999,55.81667,-2.927856,11.85,-92.56667,92.41699,-3.878174,0.03955078,1.008789,-0.1098633,31033,-0.3051758,-0.6713867,1
0.3051758,0.125,-2.889404,17.30833,-1.908333,92.23022,-4.465942,0.04345703,1.008301,-0.10644529999999999,31792,0.42724609999999996,1.037598,1
-2.441406,58.10833,-2.664185,11.14167,-93.08334,92.18079,-5.213013,0.044921880000000004,1.012695,-0.12207029999999999,32572,0.3051758,0.9765625,1
-3.2958979999999998,59.53333,-2.400513,11.25,-93.23333,92.23022,-6.207275,0.03955078,1.01416,-0.1303711,33422,-2.685547,0.0,1
1.098633,59.85833,-1.834717,11.89167,-93.35833,91.71387,-7.058716,0.02001953,1.003418,-0.1235352,34252,-0.793457,0.42724609999999996,1
0.9765625,0.325,-2.197266,17.29167,-2.925,92.79053,-5.756836,0.03564453,1.004395,-0.1572266,35112,1.220703,3.2958979999999998,1
6.9580079999999995,-1.158333,-4.070435,17.275,-2.95,92.02148,-4.356079,0.08398438,0.9995117,-0.1616211,35962,11.59668,-2.685547,1
-19.22607,-0.125,-2.081909,17.09167,-0.025,89.41772,-7.003784,-0.03759766,0.9912108,-0.02978516,36762,-12.02393,-1.281738,1
-23.62061,42.14167,-1.345825,15.866670000000001,-84.89167,91.14258,-33.68408,0.05761719,1.241211,-0.12744139999999998,37596,1.8310549999999999,12.39014,1
-45.77637,43.10833,-6.223755,5.183333,-81.73333,90.95581,-56.50269,0.009277344,1.181641,-0.1606445,38482,-3.173828,-23.49854,1
-56.03027,0.3333333,-2.021484,14.575,-0.35000000000000003,96.15234,-89.22546,0.2011719,1.122559,-0.06445313,39362,18.06641,-10.0708,1
3.723145,-0.8083332999999999,2.213745,17.08333,-2.441667,94.97131,-107.7045,-0.06982422,0.9448242,-0.1171875,40252,-1.89209,-5.67627,1
15.25879,-1.075,0.24719239999999998,20.4,-0.9666665999999999,97.98157,-113.2251,0.08691406,0.9624022,0.0390625,41172,-2.868652,20.56885,1
14.77051,79.79166,-0.5273438,4.858333,-79.4,95.73486,-137.2687,0.22851559999999999,1.07373,-0.23681639999999998,42092,-8.850098,-10.0708,1
15.01465,-1.841667,3.647461,15.35833,-0.5750000000000001,97.17957,-137.818,0.12255859999999999,0.9638671999999999,-0.1450195,43082,11.16943,22.33887,1
-4.943848,-6.508333,2.373047,15.75,2.1,100.4645,-131.5283,-0.044921880000000004,0.9746094,-0.3740234,44012,-0.5493163999999999,4.089355,1
-11.65771,1.158333,1.746826,17.30833,-5.275,100.9808,-132.3138,0.006835938000000001,0.9326171999999999,-0.2885742,44942,3.2958979999999998,-17.33398,1
-4.455566,67.2,1.598511,-7.35,-67.55833,101.3599,-121.1407,-0.07324219,0.8081056,-0.07666016,45942,-12.93945,-9.033203,1
26.42822,3.316667,1.96106,15.36667,-1.5,101.6071,-129.5398,0.09130858,0.8671875,0.1308594,46912,3.356934,15.19775,1
7.873535,-0.48333329999999997,3.746338,17.51667,-5.125,99.99756000000001,-130.5286,0.01757813,0.9238280999999999,-0.2167969,47842,-9.460449,-12.20703,1
33.75244,-2.475,3.191528,16.40833,-3.8083329999999997,100.3711,-134.6594,0.14257809999999999,0.8349608,0.0390625,48842,7.568359,-28.80859,1
10.86426,0.0,4.317627,15.83333,-3.441667,99.94812,-136.9226,0.04833984,0.9682617,-0.1635742,49992,-5.249023,-16.72363,1
7.873535,-2.358333,3.856201,16.49167,-2.9,104.6173,-151.6003,0.17431639999999998,0.8540038999999999,-0.0703125,51072,11.90186,-10.49805,1
-30.27344,-0.375,4.575806,16.4,-3.725,97.89917,-173.5895,0.05126953,0.7700195,-0.030273440000000002,52112,0.5493163999999999,-10.43701,1
34.5459,87.21667,4.147339,19.76667,-75.66666,97.4707,176.1987,0.1040039,0.7431641,0.06689453000000001,53182,-9.765625,5.554199,1
-13.5498,1.575,0.9338379,13.50833,0.1166667,100.4865,-170.6067,-0.3925781,0.8691405999999999,-0.5996094,54252,2.990723,28.44238,1
-49.31641,93.28333,-0.2416992,20.84167,-75.33334,101.6455,-171.6998,-0.2827148,1.123047,-0.45117189999999996,55322,0.42724609999999996,45.95947,1
-49.25537,0.25,-1.774292,18.25833,-0.47500000000000003,101.7279,-173.3807,-0.105957,1.212891,-0.3608398,56432,-1.342773,49.74365,1
4.943848,91.45,1.071167,21.85,-82.61667,98.42651,-178.407,-0.05957031,0.9272461,-0.3237305,57562,1.464844,3.051758,1
7.019043,0.5083333,-0.027465820000000002,11.50833,2.616667,98.28369,169.2938,0.01269531,0.9956056,-0.3896484,58652,3.662109,-0.3051758,1
15.44189,-6.166667,-1.19751,21.63333,2.641667,99.25598,176.3141,-0.11425779999999999,0.9511719,-0.4057617,59802,2.258301,-9.399414,1
30.09033,-8.191667,-2.120361,25.25,2.666667,99.13513,-177.7808,-0.008789063,1.038574,-0.3530273,60922,-1.953125,-15.80811,1
16.8457,-3.916667,-1.73584,9.591666,4.35,98.95386,-172.6227,-0.1411133,0.8754883,-0.3994141,62052,3.78418,-8.117676,1
-79.95605,2.416667,-0.2636719,23.76667,-2.733333,102.1179,176.8634,0.05078125,1.644043,0.38134769999999996,63182,-31.37207,43.76221,1
-79.95605,0.6916667,-2.543335,19.84167,-1.541667,99.86023,-171.6888,-0.1303711,1.495117,-0.10058589999999999,64362,-16.72363,59.26514,1
-79.95605,-4.383333,1.126099,21.375,-1.9000000000000001,99.81079,-173.7488,0.4077148,1.337402,0.2646484,65492,-61.21826,-75.25635,1
-13.61084,2.841667,3.268433,16.825,-2.766667,100.3491,178.6102,0.04736328,0.7641602,0.140625,66702,-17.82227,4.638672,1
-42.05322,-1.108333,4.608765,14.44167,-0.05833333,100.9918,171.8427,0.1518555,1.334961,-0.05029297,67962,-12.81738,-15.25879,1
-12.87842,-3.916667,4.042969,13.35833,0.9500000000000001,100.437,152.5177,0.1044922,1.095215,-0.1850586,69182,10.98633,-18.73779,1
-19.104,-2.95,4.081421,16.90833,-2.4,100.047,136.8073,0.1879883,0.8007812999999999,0.07373047,70392,12.02393,-23.13232,1
0.9765625,-3.125,3.070679,17.23333,-3.475,98.42651,118.8446,0.1445313,0.8330078,0.02148438,71592,13.12256,-22.64404,1
22.76611,-2.025,2.675171,15.775,-4.341667,98.67371,107.7374,0.1367188,0.9443358,-0.1191406,72822,-0.6103516,-9.643555,1
-10.31494,72.05,2.054443,55.91667,-79.71667,97.68494,101.7883,-0.07226563,1.081055,-0.1948242,74042,0.5493163999999999,-14.34326,1
2.502441,70.94167,-1.323853,58.125,-79.65833,101.2061,99.60754,-0.04589844,0.9990233,-0.03222656,75352,-19.28711,33.75244,1
-15.01465,72.79166,-1.8182369999999999,61.875,-83.975,102.2992,100.1459,-0.06787109,0.8969728,-0.1923828,76652,9.094238,-19.71436,1
-12.75635,3.183333,-2.120361,15.24167,-8.508333,102.2607,101.9806,-0.015625,1.093262,-0.1523438,77932,6.408691,-9.033203,1
8.789063,-2.991667,-1.411743,28.28333,6.733333,101.6455,97.58057,0.028808590000000002,1.010742,-0.24951169999999998,79162,-2.563477,-0.6713867,1
10.92529,-1.841667,1.389771,14.4,0.2333333,102.5739,91.69739,-0.1020508,1.1791989999999999,-0.04394531,80422,1.098633,2.929688,1
41.56494,-1.358333,-1.30188,15.54167,-4.0,101.2939,96.04797,0.08984375,0.9257812999999999,-0.08154297,81762,-0.42724609999999996,-9.033203,1
2.13623,-0.2083333,1.307373,14.36667,3.441667,98.89893000000001,99.36584,-0.09423828000000001,1.070313,-0.2124023,83072,-0.06103516,2.624512,1
-8.666992,-2.55,-2.054443,15.975,-2.908333,101.8268,96.52039,-0.2089844,0.7773437999999999,-0.0004882813,84416,-10.68115,-0.5493163999999999,1
14.77051,67.63333,-1.51062,56.53333,-88.15,100.4755,94.56482,-0.300293,0.8735353,-0.4716797,85822,3.051758,2.319336,1
20.93506,70.76667,0.8953856,60.50834,-87.59167,101.4038,94.52637,0.12451169999999999,0.8461913999999999,-0.046875,87232,5.126953,-16.29639,1
8.728026999999999,1.541667,0.2801514,24.39167,-1.133333,100.2557,99.68445,0.12744139999999998,1.932129,0.5307617,88682,50.59814,67.26074,1
-5.249023,-3.916667,-1.955566,15.39167,-3.183333,101.3049,106.4575,-0.07470703000000001,0.7753905999999999,-0.1020508,90102,-11.90186,3.2958979999999998,1
-48.70605,-0.04166667,-1.213989,18.15833,-0.8083332999999999,101.4038,99.47021,-0.1875,1.44873,-0.1953125,91552,-14.34326,52.49023,1
30.15137,-0.6916667,-1.224976,16.425,-3.475,99.14063,102.7386,-0.002929688,0.9340818999999999,-0.16699219999999998,93012,-5.493164,-18.06641,1
52.73438,3.983333,-3.087158,15.975,-1.916667,99.50317,93.93311,0.04443359,0.8222655999999999,0.08642578000000001,95612,12.51221,16.54053,1
-35.27832,-0.75,-0.46691889999999997,19.10833,-1.291667,99.51416,89.51111,0.07519531,0.9160155999999999,-0.2260742,97102,1.8310549999999999,-10.80322,1
25.45166,-2.233333,1.6754149999999999,15.66667,0.025,102.9419,80.65613,0.03320313,1.148438,-0.06005859,98602,1.8310549999999999,-7.93457,1
91.00342,-1.325,-3.197021,15.89167,-4.258333,93.06519,-107.8198,-0.1616211,1.01123,-0.3364258,100082,-7.019043,-6.408691,1
-20.99609,53.575,-0.6317138999999999,14.65833,-95.65,97.59705,-86.6272,-0.09619142,1.303223,-0.04541016,101542,-2.197266,3.173828,1
-9.155273,64.575,-0.1593018,13.24167,-93.89167,97.52014,-104.4031,0.017089840000000002,0.9765625,-0.2436523,103052,1.037598,-2.258301,1
77.94189,-2.433333,2.406006,16.16667,-1.658333,96.63025,-96.33362,0.06982422,0.9301758,0.06982422,104602,6.225586,-15.625,1
-16.29639,44.75,-2.713623,9.2,-88.24167,98.06396,-79.21692,-0.09130858,1.361328,-0.020996090000000002,106152,-5.615234,6.164551,1
-111.6333,50.76667,1.812744,1.216667,-92.75,101.0962,-88.65967,0.269043,2.4633789999999998,0.5449219,107682,-76.17188,-5.493164,1
22.52197,1.558333,1.658936,17.34167,-5.95,98.50342,-80.38147,0.02587891,0.9155272,-0.30126949999999997,109232,-20.69092,-21.85059,1
-37.29248,-2.558333,-1.005249,15.46667,-4.458333,102.3047,-82.78748,-0.02587891,0.8032228,-0.09130858,110792,-2.319336,-3.4790039999999998,1
-7.019043,54.43333,2.565308,0.025,-86.79166,99.38232,-90.41748,0.10693359999999999,0.7114258,0.048828130000000004,112322,8.300781,-37.96387,1
4.638672,-0.03333333,-3.048706,11.875,0.1416667,100.2612,-86.52283,-0.0625,1.493652,0.01904297,113872,-4.516602,3.4790039999999998,1
31.55518,-0.8083332999999999,2.911377,14.76667,0.08333334,101.1731,-93.36182,-0.07910156,1.187988,-0.01464844,115472,7.080078,23.37646,1
23.07129,2.3,-0.9448242,16.76667,-1.3,103.2935,-84.57825,0.06835938,0.6752929999999999,0.17431639999999998,117102,27.46582,13.06152,1
-4.272461,-0.1416667,2.103882,8.483334,2.025,102.5354,-93.94958,-0.2753906,0.8413086,-0.5488280999999999,118742,2.502441,5.737305,1
-6.774902,53.93333,2.087402,-5.191667,-85.225,100.3766,-93.65295,-0.10058589999999999,0.9902344,-0.3818359,120361,5.249023,6.103516,1
8.483887,-0.1666667,0.4724121,13.675,-8.358334,102.2388,-83.25989,0.01416016,1.077148,-0.1875,122032,11.65771,2.746582,1
37.59766,-1.475,0.6811522999999999,15.36667,-2.8,103.6011,-71.04858,0.00390625,0.9555663999999999,-0.2416992,123682,-4.882813,-11.2915,1
-20.81299,36.125,-3.048706,13.45,-90.525,102.1344,-45.37354,-0.05126953,0.8325193999999999,-0.07080078000000001,125302,-14.34326,2.624512,1
22.2168,-3.25,-1.203003,14.48333,-0.40833329999999995,103.0737,-34.09607,0.05908203,0.9760742,-0.24462889999999998,126962,-0.06103516,-25.6958,1
15.44189,0.075,-3.6804200000000002,14.125,-3.408333,105.0238,0.7415771,-0.10888669999999999,0.9238280999999999,-0.06201172,128672,-17.57813,8.850098,1
15.01465,31.38333,2.872925,38.58333,-73.18333,104.6722,0.9173583999999999,0.07519531,0.9985352999999999,-0.1079102,130342,14.28223,27.34375,1
3.2958979999999998,28.075,-1.224976,41.80833,-85.86667,105.2435,8.322144,-0.01757813,1.004395,-0.01074219,132062,-9.643555,-0.8544921999999999,1
-0.8544921999999999,-2.166667,4.943848,13.88333,0.2583333,102.5848,0.44494629999999996,-0.005859375,0.8872068999999999,-0.1762695,133782,13.61084,23.80371,1
-5.92041,-2.191667,-1.010742,15.03333,-2.483333,103.4802,6.146851,-0.15869139999999998,0.8398437999999999,-0.04199219,135542,-20.01953,5.065918,1
41.56494,-3.341667,1.9006349999999999,15.625,-4.2,101.4313,-0.0604248,0.137207,0.7768554999999999,0.01464844,137252,12.3291,-24.53613,1
-29.60205,0.8333332999999999,0.5383300999999999,19.19167,-2.733333,102.6013,-0.302124,-0.009277344,0.8613280999999999,-0.12207029999999999,138952,7.202148,-21.48438,1
13.61084,0.5833332999999999,0.6591796999999999,17.35833,-2.975,100.1019,1.801758,-0.02392578,0.9003905999999999,-0.24511719999999998,140692,-4.02832,-13.06152,1
3.78418,-12.35833,0.38452149999999996,24.85,3.308333,101.8158,2.329102,-0.09228517,0.9399413999999999,-0.3544922,142492,-4.394531,-1.464844,1
62.01172,0.0,-0.19226069999999998,18.50833,-0.65,104.1229,10.4425,-0.1025391,0.8115233,0.15625,144292,26.42822,-21.97266,1
40.40527,43.825,-1.461182,57.08333,-82.71667,101.7389,44.835210000000004,0.1025391,0.8730469,-0.001464844,146232,7.080078,-9.216309,1
-42.90771,-1.933333,-2.6202389999999998,14.35833,-4.983333,103.9032,54.7229,-0.1079102,0.8208008,-0.04833984,148052,-4.211426,-4.699707,1
-11.77979,48.54167,0.4779053,63.15,-70.50833,102.7277,57.38159,0.01074219,0.9277344,-0.3422852,149862,-0.9765625,4.272461,1
-38.39111,33.125,4.833984,50.15,-67.01667,106.6278,41.12183,0.1611328,1.332031,-0.1035156,151712,1.525879,-25.39063,1
-4.150391,-2.308333,1.604004,14.81667,-2.3,104.101,46.74133,-0.01660156,0.8295897,-0.08789063,153632,-14.03809,-3.417969,1
-6.408691,51.25834,0.9393311999999999,57.99166,-81.24167,102.843,71.95496,0.09082031,0.9809568999999999,-0.1987305,155502,-14.22119,-4.516602,1
19.71436,-9.791667,0.005493164,18.34167,3.841667,104.2328,47.55432,-0.09375000000000001,0.8715818999999999,-0.409668,157382,3.601074,-2.868652,1
36.13281,0.7000000000000001,-1.043701,18.46667,-0.925,103.9636,58.10669,0.10058589999999999,0.9443358,0.1699219,159272,11.47461,28.32031,1
66.77246,0.225,-4.817505,16.875,-2.1,103.1342,76.40991,0.4853516,1.47998,0.09814453000000001,161172,-26.30615,1.586914,1
11.65771,1.425,-0.9173583999999999,12.26667,3.566667,90.89539,-127.2491,-0.07958984,0.9409181,-0.4316406,163072,-7.019043,-5.7983400000000005,1
10.37598,-1.358333,3.856201,15.63333,0.6333333,96.427,-128.4741,-0.07128906,1.305664,-0.041015630000000004,164932,6.530762,-4.02832,1
-17.39502,-1.566667,0.6152344,14.81667,-3.733333,101.8488,-109.5776,-0.04150391,0.8876953,-0.11474609999999999,166842,-4.882813,4.394531,1
12.69531,-0.725,1.856689,16.76667,-2.725,101.3708,-95.12512,0.02050781,0.8891603,-0.08544922,168762,0.9765625,-14.4043,1
-26.85547,0.725,3.262939,15.36667,-4.725,98.10791,-143.5364,-0.09960938,0.8378905999999999,-0.06542969,170692,-1.159668,-9.70459,1
5.187988,3.95,5.075684,14.20833,3.5,99.12415,-125.777,-0.15087889999999998,1.075684,-0.4057617,172622,10.13184,-5.67627,1
12.51221,74.39167,4.921875,-3.016667,-70.41666,100.4041,-134.0277,0.1396484,0.7416992,0.03369141,174571,9.277344,-25.93994,1
-19.04297,80.2,3.268433,4.358333,-80.73333,101.3544,-143.9978,-0.4130859,1.005371,-0.7216796999999999,176581,-5.065918,36.25488,1
-44.43359,86.71667,3.4002689999999998,11.675,-76.88333,99.5636,-179.5715,-0.05322266,0.8847655999999999,-0.07470703000000001,178602,-0.9155272,8.361816,1
-10.37598,0.65,3.570557,17.025,1.425,96.16333,-177.3743,0.08496094,0.921875,-0.2871094,180642,20.87402,11.59668,1
34.17969,-1.441667,1.582031,15.28333,-3.216667,97.64648,172.5018,0.05859375,0.9375,-0.2070313,182672,-7.568359,-5.493164,1
45.41016,0.1916667,3.043213,16.0,-0.9166667,101.0413,-179.7528,-0.1279297,1.11377,0.06689453000000001,184682,-7.751465,3.2958979999999998,1
-19.04297,0.008333334000000001,-1.477661,19.55,-3.991667,99.51416,-177.2479,-0.06689453000000001,0.8232421999999999,-0.15039059999999999,186702,9.338379,-17.57813,1
-3.845215,0.6333333,-3.131104,11.825,-0.8916666,100.2393,-177.0392,-0.03759766,0.9580078,-0.046875,188722,-20.26367,46.44775,1
5.310059,77.99167,-0.9338379,13.88333,-70.825,102.5189,-170.3815,-0.4550781,1.32666,0.4770508,190752,63.7207,-75.98877,1
-8.605957,1.066667,2.334595,26.25,3.116667,98.57483,-179.9066,-0.11669919999999999,1.080078,-0.3046875,193012,-0.793457,-2.258301,1
-6.408691,87.04166,3.131104,37.01667,-76.19167,100.2502,145.2173,0.13525389999999998,0.7958984,-0.022460940000000002,195112,12.45117,-20.99609,1
-63.17139,77.66666,0.9173583999999999,54.2,-87.60833,99.19556,107.5836,0.06005859,1.7319339999999999,0.27050779999999996,197242,-18.9209,42.60254,1
-34.91211,70.91666,0.2526855,55.825,-79.99167,101.4917,94.10339,0.06201172,0.9033203,-0.2646484,199332,4.943848,-16.60156,1
15.25879,-0.8916666,-1.323853,23.74167,-0.3416667,103.222,92.09839,-0.22998049999999998,1.069336,0.4101563,202552,51.26953,-44.37256,1
19.59229,0.08333334,0.08239746,18.675,-5.166667,101.3818,96.84998,-0.06298828000000001,0.9067383,-0.2836914,204612,-12.3291,-15.99121,1
-27.9541,-1.275,1.796265,14.825,-1.558333,104.7766,90.84595,0.12255859999999999,0.9453125,-0.07568359,206712,8.789063,7.446289,1
13.5498,67.33334,2.081909,59.1,-83.55,102.7551,93.15857,0.06884766,1.027832,-0.1030273,208902,14.09912,40.34424,1
-65.30762,66.975,-0.8514404,59.58333,-88.25833,102.9144,89.63196,-0.020996090000000002,1.875977,0.4326172,211032,-39.55078,43.64014,1
11.65771,71.48333,-1.7248539999999999,57.5,-89.50833,101.3049,94.31213,-0.04345703,1.175781,-0.1303711,213241,3.2958979999999998,-7.629395,1
-15.25879,-2.183333,-2.219238,15.69167,-1.908333,100.816,95.82825,-0.18603519999999998,0.8076171999999999,-0.03369141,215432,-10.13184,1.159668,1
-3.234863,-1.5,-1.323853,19.63333,-0.7083332999999999,101.1182,101.9971,-0.3203125,1.157227,0.08984375,217612,29.1748,-26.36719,1
-26.12305,-1.175,1.005249,19.3,-0.6166667,95.50964,83.17749,0.21337889999999998,1.138184,0.15039059999999999,219792,-40.22217,-26.55029,1
-32.53174,-0.5666667,-0.3790283,16.6,-2.775,98.3606,91.74683,-0.02978516,0.9116211,-0.1762695,222042,4.638672,-14.83154,1
111.2671,73.85833,-2.746582,16.26667,-93.525,93.20251,170.8813,-0.2583008,1.308594,-0.03662109,224232,15.625,-22.82715,1
39.0625,-1.25,1.219482,17.04167,-3.466667,95.73486,-90.75806,0.03857422,0.9965818999999999,0.02001953,226522,4.089355,-18.49365,1
-1.403809,1.65,3.438721,15.575,-0.7166667,98.50342,-98.26172,-0.137207,1.176758,-0.10644529999999999,228722,-12.02393,-6.9580079999999995,1
-57.9834,-2.916667,2.8125,21.16667,-1.008333,101.0248,-90.27466,0.47314449999999997,0.9755858,0.1552734,230932,-55.17578,-62.19482,1
-29.60205,53.26667,1.856689,-2.858333,-91.95,100.6512,-91.0437,0.168457,0.8896483,0.05419922,233172,-35.15625,-29.47998,1
1.525879,49.15,-0.9118651,-5.483333,-88.75833,99.83826,-87.52808,0.02441406,1.078613,-0.3540039,235392,-1.037598,-17.02881,1
-4.333496,-0.48333329999999997,-0.1483154,14.95,-7.141667,99.93713,-86.87988,-0.01464844,1.054688,-0.19824219999999998,237662,20.38574,5.371094,1
8.178711,-7.483333,-1.713867,22.04167,3.208333,99.8877,-90.44495,-0.006835938000000001,1.014648,-0.359375,240022,-2.441406,-12.08496,1
1.464844,58.95,-0.37353519999999996,-9.725,-79.025,100.827,-92.81799,-0.03320313,0.9409181,-0.4379883,242262,-0.5493163999999999,-7.873535,1
2.01416,3.925,1.63147,17.50833,-5.983333,102.5848,-93.68042,0.07910156,1.07959,-0.1557617,244542,3.4790039999999998,1.281738,1
-44.67773,1.116667,3.647461,19.53333,-3.6,98.48145,-117.7899,-0.12402339999999999,0.9467772,-0.16601559999999999,246842,13.00049,-18.85986,1
-4.699707,5.633333,2.614746,28.375,5.525,101.3928,-75.48706,-0.215332,1.097656,-0.2910156,249162,5.981445,-9.765625,1
3.356934,37.45833,1.8951419999999999,6.983333,-91.60833,102.8101,-64.08325,-0.015625,1.228516,-0.0009765625,251502,-4.02832,-4.638672,1
-23.07129,-0.6333333,-1.367798,21.49167,-0.7666666999999999,102.6782,-46.17004,0.06738281,1.831543,0.4799805,253882,-37.29248,25.08545,1
-34.42383,32.6,0.2526855,36.275,-77.1,103.7274,-7.1521,0.2875977,1.881348,0.105957,256252,-58.59375,-17.51709,1
-30.82275,1.366667,1.636963,11.41667,0.6916667,104.5679,-2.334595,-0.37988279999999996,0.9184568999999999,-0.5898437999999999,258592,5.737305,26.55029,1
-59.81445,26.36667,1.763306,27.86667,-90.95834,105.4413,-11.45325,-0.12744139999999998,1.395508,-0.03515625,260982,-0.6103516,23.74268,1
-3.2958979999999998,3.716667,3.609009,16.275,-3.058333,99.94263,2.763062,-0.1357422,0.7788086,0.1157227,263442,-18.43262,2.868652,1
13.24463,1.275,3.619995,16.58333,-3.775,101.0138,-5.383301,0.08349608,0.8872068999999999,-0.01660156,265832,19.22607,6.774902,1
18.98193,-2.716667,1.680908,15.60833,-3.8083329999999997,99.20654,-3.213501,0.1181641,0.8833008,-0.04296875,268262,6.408691,-0.1831055,1
12.51221,-1.775,1.96106,16.25,-3.15,101.6785,3.273926,0.03710938,1.005859,-0.24072269999999998,270682,5.004883,-3.90625,1
-11.90186,1.791667,2.351074,15.28333,0.7416667,103.7274,3.90564,0.10498049999999999,1.813477,0.1416016,273112,-38.39111,15.19775,1
23.98682,-0.25,0.1538086,16.2,-2.133333,100.7117,27.41638,-0.005859375,0.9794921999999999,-0.09130858,275472,-16.78467,8.605957,1
-114.7461,0.025,-3.328857,15.775,-2.158333,91.30188,-69.82361,0.3291016,0.9863280999999999,-0.09570313,277792,-7.629395,-2.868652,-1
-20.93506,86.39167,0.46691889999999997,9.125,-81.61667,94.8999,-160.0653,0.05566406,0.9526367,-0.18261719999999998,280132,11.71875,-11.23047,-1
-10.00977,-0.2833333,-1.109619,16.325,-2.691667,97.00928,-177.9071,0.001953125,0.9555663999999999,-0.1157227,282672,-11.04736,2.502441,-1
17.33398,1.216667,-1.203003,19.1,-1.075,95.47668,-176.4349,0.2011719,0.8569336,0.1616211,285132,7.263184,15.38086,-1
3.173828,-1.891667,1.09314,18.625,1.841667,95.33936,178.6267,-0.03613281,0.9672852999999999,-0.2607422,287662,-6.591797,-1.708984,-1
21.42334,87.95,-0.14282229999999999,20.575,-80.44167,95.98755,-178.9838,-0.01416016,0.9614258,-0.20507809999999999,290202,-9.033203,-11.71875,-1
5.737305,1.383333,0.7635498,13.991670000000001,-4.7,90.44495,-169.3048,0.08251953000000001,0.9770508,-0.1523438,292752,-2.197266,-3.173828,-1
13.18359,92.0,-0.1263428,17.79167,-81.675,95.224,-177.3633,0.07373047,0.9555663999999999,-0.1757813,295291,-7.873535,-9.338379,-1
13.5498,91.45834,-2.477417,14.75833,-80.275,92.6532,-175.7318,0.1035156,0.9921875,-0.2241211,297912,2.685547,8.361816,-1
-26.12305,81.60833,0.9722898999999999,15.21667,-67.79166,96.54236,-170.6506,0.02001953,1.012695,-0.08349608,300541,-10.55908,-8.483887,1
-30.51758,-1.608333,-0.8679199,16.95833,-2.125,100.1459,-179.4397,-0.09765625,0.8984375,-0.04931641,303142,-7.69043,10.31494,-1
-16.23535,0.5750000000000001,-2.944336,14.75,-0.9916666999999999,95.39978,147.3486,0.06494141,1.09668,-0.03076172,305672,3.78418,-1.7700200000000001,-1
-41.3208,-1.383333,-0.18676759999999998,16.56667,-3.758333,99.73389,105.1172,0.1289063,0.9550780999999999,-0.1694336,308282,-6.530762,5.187988,-1
-52.79541,-0.8416665999999999,-0.4888916,15.80833,-0.9,103.5516,88.64868,0.04736328,1.962402,0.2851563,310902,-40.2832,63.78174,-1
34.85107,-3.341667,-0.4779053,16.45,-1.908333,100.3491,91.91711,-0.03417969,0.9770508,-0.2915039,313512,0.3662109,-7.8125,-1
8.544922,0.6583333,-4.367065,15.70833,-1.5,103.3978,101.8982,0.1303711,1.112305,-0.03808594,316142,10.74219,11.16943,-1
-8.300781,-1.241667,-0.9503174,13.44167,-1.741667,97.39929,102.854,0.07958984,0.8515625,-0.06738281,318752,10.86426,-0.24414059999999999,-1
3.845215,6.016667,-3.180542,15.35833,-0.9500000000000001,98.39355,86.48987,0.1616211,1.078613,0.2480469,321402,21.3623,41.99219,1
-4.577637,78.61667,1.658936,56.78333,-85.75833,102.1838,106.7816,-0.09667969,0.7426758,0.11474609999999999,324042,-18.49365,15.13672,1
-1.098633,76.71667,-0.0769043,47.83333,-88.34167,101.0468,103.9636,0.04199219,0.9760742,-0.2817383,326731,6.530762,19.77539,1
-77.45361,1.166667,1.521606,16.14167,0.9500000000000001,94.69116,92.64771,-0.1948242,0.7885742,-0.01953125,329442,-4.272461,31.92139,1
2.624512,-1.108333,0.1318359,15.10833,-2.816667,99.77234,77.79419,0.13476559999999999,0.9135742,-0.1396484,332352,-2.13623,-17.94434,1
-32.22656,-1.633333,-2.285156,14.325,-4.458333,102.2827,73.43262,0.06640625,0.9121094,-0.08203125,335132,2.929688,4.882813,1
-14.64844,-2.091667,2.746582,14.11667,-0.47500000000000003,103.6176,54.30542,0.1435547,0.9326171999999999,-0.2104492,337902,17.08984,-7.8125,1
-2.01416,41.525,0.6701659999999999,7.225,-79.50833,92.71912,-37.496340000000004,0.13134769999999998,1.016602,-0.06982422,340622,8.117676,6.835938,1
17.94434,-2.2,5.152588,16.63333,-0.5416667,90.71411,-34.57397,-0.08837892,0.9765625,-0.001953125,343412,-7.93457,-3.601074,-1
-0.3051758,0.4333333,3.14209,14.725,1.933333,89.56055,-38.45215,0.01757813,0.9619141999999999,0.1293945,347302,17.63916,13.06152,-1
6.225586,-0.36666669999999996,2.839966,16.48333,-0.7083332999999999,91.91711,-44.55505,0.03564453,0.7875977,0.05419922,350052,-17.08984,2.624512,-1
2.380371,61.85,-1.186523,-12.875,-86.21667,83.23242,-112.4451,0.03125,0.9409181,0.2744141,352852,-15.50293,7.141113,-1
-28.80859,0.6583333,0.03845215,16.08333,1.9583329999999999,84.375,-126.0461,0.03076172,0.9047853,0.09570313,355642,8.850098,19.28711,-1
19.71436,-0.025,0.8679199,17.0,-0.49166669999999996,88.3136,-131.6766,-0.02832031,0.9345703,0.03076172,358412,-13.12256,18.06641,-1
-26.55029,-1.741667,-1.07666,17.0,0.3416667,87.95105,-132.215,0.04785156,1.111816,0.03710938,361222,5.615234,16.60156,-1
-17.08984,0.025,5.597534,15.6,5.216667,76.62964,-132.7203,-0.22070309999999999,1.176758,0.19042969999999998,364042,5.310059,-11.04736,1
-17.76123,-4.433333,4.9823,15.1,-0.35000000000000003,83.02917,-163.4546,-0.1523438,0.9746094,0.01464844,366862,-16.23535,-26.79443,1
6.164551,3.233333,2.466431,18.18333,-0.5416667,84.95728,-172.8973,-0.08642578000000001,0.9409181,0.08642578000000001,369732,-3.601074,38.39111,1
34.5459,7.383333,-0.14282229999999999,27.175,1.491667,92.32361,-130.6934,-0.13525389999999998,0.9541016999999999,-0.1870117,372542,24.10889,0.12207029999999999,1
-45.95947,-3.0,0.6866455,20.75833,0.7416667,105.0073,-5.795288,0.5546875,1.6450200000000001,-0.011230470000000001,375382,-46.75293,-74.95117,1
-18.06641,29.41667,-0.3186035,42.95833,-78.6,104.9854,10.10742,-0.1499023,0.7495117,-0.12207029999999999,378302,15.31982,-8.911133,1
31.67725,2.425,-1.598511,15.9,-6.775,106.1774,36.02417,0.10693359999999999,0.7700195,-0.17822269999999998,381232,-22.94922,-3.540039,1
5.187988,52.8,-1.807251,63.26667,-86.36667,104.1119,59.49646,0.1635742,0.8208008,-0.12744139999999998,384121,-6.286621,5.371094,1
-14.89258,53.40833,-1.63147,65.71667,-88.40833,104.4141,50.306400000000004,0.1376953,0.8916016999999999,-0.2167969,387072,-2.075195,1.953125,1
-6.652832,-1.375,0.08239746,14.8,-0.3833333,105.8203,48.55408,-0.07910156,1.181641,-0.27832029999999996,389992,0.7324219,15.25879,1
-40.46631,1.525,-1.065674,25.28333,-3.941667,92.47192,90.37354,-0.44287109999999996,1.739258,0.1196289,392902,26.30615,-49.80469,1
3.540039,87.66666,-2.202759,61.63334,-82.24167,101.4478,114.3567,0.2924805,1.442871,-0.2993164,395822,-20.99609,11.65771,1
10.55908,-1.541667,-0.09338379000000001,16.55833,-3.033333,103.3813,138.7463,-0.08642578000000001,0.7929687999999999,-0.06298828000000001,398892,-8.789063,-11.71875,1
5.7983400000000005,91.51667,-1.73584,49.06667,-77.84167,105.7654,136.3239,0.2607422,1.295898,-0.3364258,401862,-6.896973,23.37646,1
-8.117676,86.675,0.1757813,47.31667,-76.15,104.3701,139.2242,-0.07519531,0.9013671999999999,-0.2436523,404892,9.094238,2.685547,1
9.643555,-1.4583329999999999,-1.950073,17.05,-3.733333,102.1674,176.5723,-0.06298828000000001,0.9741211,-0.1630859,407922,2.746582,-6.713867,1
33.3252,-2.3,2.938843,15.28333,-0.6166667,99.19556,-127.2162,-0.04638672,1.134766,-0.1015625,410892,2.868652,-9.765625,1
0.0,58.89167,-0.2142334,13.14167,-86.275,101.7609,-114.3347,-0.184082,0.8994141999999999,-0.1000977,413851,-15.44189,6.652832,1
5.981445,60.23333,3.087158,17.90833,-94.54166,99.58008,-114.2798,0.13476559999999999,0.8964844,-0.0703125,416892,17.08984,1.586914,1
54.32129,-0.7666666999999999,-2.362061,16.01667,-1.825,97.83325,-106.0126,0.1518555,1.297363,-0.10888669999999999,419952,7.202148,16.72363,1
16.41846,-2.966667,2.839966,15.325,-0.375,100.8325,-98.39355,-0.06542969,1.219238,-0.08398438,422962,3.417969,13.91602,1
-19.65332,-0.9416667,-0.6481933999999999,16.225,-3.258333,100.2338,-94.05945,-0.01367188,0.9516602999999999,-0.1523438,426122,-8.911133,-2.075195,1
15.56396,57.83333,2.493896,1.008333,-87.325,100.6787,-100.9589,-0.002441406,0.9272461,-0.2119141,429202,-0.793457,-21.72852,1
5.615234,-0.9583332999999999,-0.7745361,16.89167,-2.9,98.75061,-95.75684,-0.04833984,0.9096681,-0.1401367,432302,8.850098,-6.9580079999999995,1
2.197266,-1.8666669999999999,2.384033,17.79167,-5.05,99.75037,-96.82251,0.07177734,0.9560546999999999,-0.2011719,435462,-12.93945,-16.54053,1
-8.605957,2.483333,3.872681,16.84167,-1.4583329999999999,102.5848,-100.9698,0.1132813,0.6079102,0.06494141,438572,-38.08594,-1.342773,1
20.50781,-1.008333,-3.22998,13.991670000000001,-0.5416667,102.2278,-82.60071,0.04150391,1.031738,-0.09912108,441722,-22.2168,14.5874,1
15.38086,-2.533333,0.4504395,15.7,-3.758333,101.4313,-49.50439,-0.02392578,0.9863280999999999,-0.3310547,444842,3.417969,-9.70459,1
-13.3667,2.208333,0.1702881,12.24167,1.025,103.2935,-9.09668,-0.2651367,0.9853516999999999,-0.5620117,447972,3.356934,32.59277,1
9.338379,-1.466667,-1.109619,14.81667,-0.5833332999999999,103.0188,-5.971069,-0.052734380000000004,1.236328,-0.08740233,451082,3.051758,-15.44189,1
35.03418,-2.55,1.433716,15.55833,-2.883333,102.0245,-11.08521,0.04052734,0.9692383,-0.16259769999999998,454272,-4.638672,-22.82715,1
14.03809,-10.475,-0.005493164,21.55833,1.05,99.98657,-23.2196,-0.05615234,0.9140625,-0.4072266,457482,3.112793,3.845215,1
55.84717,30.525,2.131348,24.93333,-91.29166,98.3551,-30.64636,0.004882813000000001,1.041016,-0.2885742,460692,14.52637,9.338379,1
9.338379,-1.808333,-1.378784,15.18333,-0.35000000000000003,97.31689,-2.191772,-0.1181641,1.282227,-0.10839839999999999,463882,-6.652832,-9.94873,1
24.35303,38.06667,-0.5712891,51.55833,-85.20834,103.8593,11.93665,0.06396484,0.9692383,-0.22509769999999998,467052,-18.06641,-6.469727,1
-5.493164,-4.65,0.9722898999999999,9.975,14.25,42.14355,39.94629,-0.1118164,0.6708984,0.7426758,470302,0.3662109,-52.06299,1
1.8310549999999999,2.125,-1.483154,17.59167,-1.65,96.58081,45.79651,0.02050781,1.021973,-0.05761719,473662,0.42724609999999996,17.63916,1
-5.249023,42.69167,-2.092896,53.85833,-88.29166,92.22473,45.45593,0.044921880000000004,1.02832,-0.08935547,476922,0.1831055,-16.78467,1
-7.202148,6.466667,-7.734375,5.708333,14.675,16.97937,57.87048,0.10839839999999999,0.300293,0.9116211,480242,-13.73291,51.87988,1
26.12305,2.283333,8.322144,17.10833,-1.666667,93.41675,56.7334,-0.20605469999999998,0.9995117,-0.04296875,483572,8.361816,18.9209,-1
-21.66748,-0.01666667,-2.93335,18.96667,-2.358333,94.0979,53.46497,0.12255859999999999,0.9926758,-0.1494141,486822,3.356934,5.126953,-1
-59.021,2.3,0.8843994,21.775,-1.216667,101.0687,60.86426,0.40429689999999996,1.306641,0.1958008,490122,-42.5415,-58.77686,-1
-19.83643,2.491667,0.2636719,15.04167,-8.308333,103.2495,65.56641,-0.06542969,1.019043,-0.2075195,493472,14.34326,-6.04248,-1
-84.04541,32.2,1.6479489999999999,30.175,-84.10833,101.7334,21.65955,-0.04296875,1.082031,-0.06689453000000001,496762,-6.713867,-10.25391,-1
-17.94434,60.51667,-4.954834,51.08333,-85.575,99.73389,101.2335,0.15087889999999998,0.9399413999999999,-0.1411133,500092,-3.173828,2.441406,-1
17.94434,4.516667,-0.5987549,17.88333,-1.775,93.7738,18.02307,0.01611328,1.061523,-0.028808590000000002,503452,-0.24414059999999999,37.47559,1
