GyroX_mean,GyroX_std,GyroX_max,GyroX_min,GyroX_range,GyroX_derivative,GyroY_mean,GyroY_std,GyroY_max,GyroY_min,GyroY_range,GyroY_derivative,GyroZ_mean,GyroZ_std,GyroZ_max,GyroZ_min,GyroZ_range,GyroZ_derivative,AccX_mean,AccX_std,AccX_max,AccX_min,AccX_range,AccX_derivative,AccY_mean,AccY_std,AccY_max,AccY_min,AccY_range,AccY_derivative,AccZ_mean,AccZ_std,AccZ_max,AccZ_min,AccZ_range,AccZ_derivative,AccMag_mean,AccMag_std,AccMag_max,AccMag_min,AccMag_range,AccMag_derivative,AngX_mean,AngX_std,AngX_max,AngX_min,AngX_range,AngX_derivative,AngY_mean,AngY_std,AngY_max,AngY_min,AngY_range,AngY_derivative,AngZ_mean,AngZ_std,AngZ_max,AngZ_min,AngZ_range,AngZ_derivative,AngMag_mean,AngMag_std,AngMag_max,AngMag_min,AngMag_range,AngMag_derivative,Tag
0.67138685,0.8544923,1.098633,-0.6103516,1.7089846,0.5696615333333334,-0.3356933649999999,0.18310546999999994,-0.06103516,-0.4272460999999999,0.36621093999999993,-0.1220703133333333,-0.274658175,0.18310544999999998,0.0,-0.3662109,0.3662109,-0.1220703,-0.0180664075,0.001953125,-0.01513672,-0.01904297,0.00390625,-0.0013020833333333333,-0.8807373249999999,0.00024414999999999853,-0.8803711,-0.8808594,0.0004882999999999971,-0.0001627666666666657,-0.4382324499999999,0.004394500000000051,-0.4360351999999999,-0.4448242,0.008789000000000102,0.0029296666666667006,0.9839143759396456,0.0017131775410776928,0.9864841422512621,0.9830577871691067,0.0034263550821553856,-0.001142118360718462,-119.02315,0.148299999999999,-118.949,-119.2456,0.296599999999998,0.09886666666666599,3.59527575,0.08239750000000012,3.718872,3.554077,0.16479500000000025,-0.05493166666666675,-33.3737175,1.1920150000000014,-32.77771,-35.16174,2.3840300000000028,0.7946766666666676,123.66956619809827,0.47176446624086316,124.37721289745957,123.43368396497785,0.9435289324817262,-0.3145096441605754,1
0.12207042857142851,2.4790093505270647,1.159668,-5.493164,6.652832,0.010172499999999992,-0.08719305714285709,1.5663804535140036,3.356934,-1.464844,4.821778,-0.17293298333333337,-0.4272460857142858,2.0240001878663034,3.295898,-3.601074,6.896972,0.6103514833333333,-0.006835938,0.01641622681396737,0.01806641,-0.01904297,0.03710938,0.005289713333333334,-0.8787667571428571,0.0029929670701257334,-0.8745117,-0.8808594,0.006347699999999956,0.0003255166666666735,-0.4444754714285714,0.01138407481509653,-0.4360351999999999,-0.4643555,0.028320300000000076,-0.002441400000000001,0.984976443276439,0.0029281929449286774,0.9903146666526897,0.9830577871691067,0.007256879483583001,0.0007907334521640349,-119.24641428571428,0.4474932790131119,-118.949,-120.141,1.1920000000000073,-0.0814833333333335,3.0785259999999997,0.6268616378109287,3.554077,2.120361,1.433716,-0.19317616666666662,-31.696341428571433,1.361656177117025,-29.98169,-32.77771,2.7960199999999986,0.4348749999999999,123.43380553117784,0.20508551883396417,123.84368190193,123.21235350394862,0.6313283979813775,-0.03688841017153758,1
-0.7781981750000001,2.1757862149655747,1.159668,-5.493164,6.652832,-0.20054411428571428,-0.29754637000000006,1.5431976080156196,3.356934,-1.464844,4.821778,-0.11335098571428574,-0.19836431250000006,2.0715375636088673,3.295898,-3.601074,6.896972,-0.20054415714285714,-0.004455567,0.013848700336309779,0.01806641,-0.02148438,0.03955079,0.001604352857142857,-0.873901375,0.005448225455988909,-0.8657227,-0.8808594,0.015136700000000003,0.0019531285714285656,-0.45892334999999995,0.015326639230810813,-0.4360351999999999,-0.4838867,0.0478515000000001,-0.005440842857142858,0.9872819914639375,0.0029673269693053415,0.9920099345854175,0.9830577871691067,0.008952147416310785,0.0007582194816559815,-119.8292625,0.6194701190476088,-118.949,-120.7178,1.7687999999999988,-0.22364285714285717,2.9278565,0.49730585741056493,3.554077,2.120361,1.433716,-0.047869,-29.88212625,1.4384155345372949,-28.25684,-32.77771,4.520869999999999,0.6301442857142854,123.54282800910225,0.33499741192931815,124.02923323130143,123.1507512993641,0.8784819319373298,0.05944707500561565,1
0.6179808750000001,2.68840614884356,6.04248,-1.586914,7.6293940000000005,1.0463168571428572,-0.14495844500000005,1.3134972775086942,2.685547,-1.281738,3.9672850000000004,0.47956195714285715,0.13732905749999996,0.8617792661810985,1.159668,-1.77002,2.9296879999999996,-0.07847377142857141,-0.01177978625,0.005043652172737381,-0.007324219,-0.02148438,0.014160161000000001,-6.975442857142859e-05,-0.8708496125,0.00382697014749545,-0.8657227,-0.8779296999999999,0.012206999999999968,0.0006975428571428521,-0.46917725,0.014236778250011472,-0.4482422,-0.4848633,0.03662110000000002,-0.004952571428571417,0.9893554370899157,0.0061732796130589155,0.9982926721269733,0.9809473884789263,0.017345283648046994,0.0017097413294222066,-120.1918,0.4021688771079715,-119.4763,-120.7178,1.241500000000002,-0.1153571428571435,3.15101625,0.18560855192562806,3.466187,2.834473,0.6317140000000001,0.06042471428571426,-28.07419,1.0171253726205896,-26.6803,-29.72351,3.043210000000002,0.43474428571428597,123.4711075746771,0.3708240318645985,124.02923323130143,123.07397791085693,0.9552553204445076,0.014224404274642666,1
1.6021728000000002,3.5509587829246057,7.385254,-2.13623,9.521484,-0.7760182857142858,-0.02288815000000005,1.3959916101361538,2.685547,-1.89209,4.577637,-0.12207031428571427,-0.03814695500000004,0.6392581711535723,0.6103516,-1.220703,1.8310546,0.0087193142857143,-0.010681153374999999,0.004892830509913137,-0.004882813,-0.01806641,0.013183597000000002,0.0006975445714285715,-0.8825683625,0.012519719901241236,-0.8691405999999999,-0.8969727,0.027832100000000026,-0.0029994428571428517,-0.44824217499999996,0.03257557059510131,-0.4038085999999999,-0.4848633,0.08105470000000009,0.009835385714285716,0.990444825147143,0.008797201871905443,1.0052923080081773,0.9809473884789263,0.024344919529250997,-0.0018024879389239975,-118.71413749999999,1.6602080462894646,-116.7133,-120.5365,3.8232,0.4849714285714291,2.92922975,0.27023977627959,3.257446,2.598267,0.659179,-0.07062642857142855,-26.915131249999998,0.7816247078533188,-25.74646,-27.8833,2.1368399999999994,0.2793671428571431,121.76372770760287,1.7422348680570436,123.72027481660444,119.70764448341171,4.012630333192732,-0.5359969711958489,1
0.648498605,2.8772543711383567,7.385254,-2.13623,9.521484,-0.8893694285714285,-0.2975464125,0.7506775282731061,0.4272460999999999,-1.89209,2.3193361,-0.10463169999999998,-0.09155272500000003,0.5971293498510861,0.5493163999999999,-1.220703,1.7700194,0.15694754285714282,-0.009399414875,0.004058068617847463,-0.004882813,-0.01806641,0.013183597000000002,0.0011858264285714288,-0.8927612249999999,0.002699011083844262,-0.8896484,-0.8969727,0.00732429999999995,-0.0004185285714285606,-0.42291257499999996,0.019203148413718164,-0.4038085999999999,-0.4677734,0.0639648000000001,0.007463728571428574,0.9880610267545946,0.0071599417136388645,1.0052923080081773,0.9827991852418086,0.022493122766368612,-0.002954824578946104,-117.315425,0.4982992782598486,-116.7133,-118.2733,1.5600000000000023,0.1710714285714293,2.7232362500000002,0.08204355766951749,2.839966,2.598267,0.2416990000000001,-0.014125285714285698,-25.65033,1.187923148392064,-24.17542,-27.8833,3.7078799999999994,0.5296971428571428,120.12236917078278,0.6221923388892318,121.54882689134091,119.5772028721291,1.9716240192118022,-0.2816605741731146,1
-0.5057199371428572,1.3036946315345501,1.159668,-2.990723,4.150391,-0.4475912,-0.34877232,0.7219320283078825,0.06103516,-1.953125,2.01416016,-0.3255208333333333,0.19182477142857143,0.3736437966526732,0.9765625,-0.06103516,1.03759766,0.15258789,-0.010463171714285712,0.0016159380777136562,-0.008789063,-0.01367188,0.004882817000000001,-0.0004069016666666669,-0.8918108142857142,0.0017797856560351406,-0.8896484,-0.8945312999999999,0.004882899999999912,0.0,-0.4206891714285715,0.004535664606102112,-0.4155273,-0.4282226999999999,0.012695399999999912,-0.0012207166666666491,0.9861218651993113,0.0013828403229090575,0.9875082232053535,0.9842539622483321,0.0032542609570214154,0.0005308478957957719,-117.3677142857143,0.23171388556127498,-117.0703,-117.6471,0.5767999999999915,-0.02014999999999863,2.7575684285714286,0.02150984796054384,2.785034,2.735596,0.04943799999999987,0.0,-24.187187142857145,0.7776831622778488,-23.13171,-25.21912,2.0874099999999984,0.3479016666666664,119.86780301279941,0.3039221426219375,120.23380603805053,119.48630447740496,0.7475015606455742,-0.05030938865233973,1
-0.5580356142857144,1.877737797023905,1.831055,-2.990723,4.821778,0.12207035,-0.34005302,1.2393077304907925,1.708984,-1.953125,3.662109,-0.17293290000000003,0.20926338571428574,0.4107340176883268,0.9765625,-0.1831055,1.159668,0.06103515,-0.014090404285714285,0.0045318923465842145,-0.01025391,-0.0234375,0.01318359,-0.0007324216666666668,-0.8878348142857142,0.004740066137523293,-0.8818359,-0.8945312999999999,0.012695399999999912,0.0013834666666666662,-0.43045481428571425,0.011436823749250853,-0.4169922,-0.4448242,0.027832000000000023,-0.001708983333333321,0.9868572290859111,0.0016491275153069553,0.9882172168840075,0.9839503574316609,0.004266859452346616,-0.0005086861393614658,-117.86132857142856,0.6196725821331907,-117.0703,-118.7567,1.686399999999992,-0.11261666666666532,2.847028571428571,0.13750174156697934,3.103638,2.735596,0.368042,0.008239833333333335,-22.637328571428572,0.800609444557261,-21.70898,-23.74695,2.037969999999998,0.3396616666666663,120.05213671001242,0.5137252126614231,120.86041839905215,119.48630447740496,1.3741139216471936,0.04618790131135597,1
0.2899172375000001,3.4461513602262697,6.530762,-5.249023,11.779785,0.4621232714285714,-0.831604025,1.7067835878694813,1.708984,-3.540039,5.249023,-0.34005300000000005,0.9613036875000001,2.232764374032509,6.225586,-0.6713867,6.8969727,0.9068080428571428,-0.01867675875,0.006967944696048034,-0.01171875,-0.03027344,0.01855469,-0.002232142857142857,-0.8850097625,0.004543156021640037,-0.8803711,-0.8935546999999999,0.013183599999999962,-0.001534599999999989,-0.4401245124999999,0.011325406301439205,-0.4272460999999999,-0.4628906,0.03564450000000008,0.002162399999999985,0.9886676642904462,0.0033316331281635866,0.9947335262917693,0.9839503574316609,0.010783168860108328,0.0004745354254798638,-118.29185,0.581517165942428,-117.4713,-119.306,1.834699999999998,0.1836285714285708,3.1022645,0.4474700715000789,4.152832,2.768555,1.384277,0.14988485714285713,-21.277769999999997,0.9181561447503663,-19.74792,-22.23633,2.4884099999999982,0.3554871428571426,120.23392348590542,0.6249003540702239,121.14036140555311,119.19199923500162,1.9483621705514906,-0.23834559486436188,1
-0.6561277749999999,3.6451764544633347,6.530762,-5.249023,11.779785,-0.2964564142857143,-0.8163453875,6.403162069407951,9.58252,-13.12256,22.705080000000002,0.4359653571428571,-0.3280640374999998,4.2669690177488055,6.225586,-6.591797,12.817383,-0.8719308571428571,-0.05731201375,0.04262729271656898,-0.01318359,-0.1303711,0.11718751,-0.007812500000000002,-0.8834228499999999,0.0058753464060792675,-0.8769530999999999,-0.8935546999999999,0.016601599999999994,0.000837057142857137,-0.4461059624999999,0.016177490366461794,-0.4287109,-0.4716797,0.042968799999999974,-0.00509207142857144,0.9922361799652254,0.007379053038495777,1.0034026769932731,0.9853245945166741,0.018078082476599033,0.0019103650271568176,-118.39897500000001,0.5518723603722661,-117.4713,-119.306,1.834699999999998,-0.11534285714285732,4.9905395,2.070278534204447,8.475952,2.883911,5.592041,0.3186034285714286,-18.48998875,2.3725361385261343,-14.85901,-21.23108,6.372069999999999,0.6301442857142854,119.97386305856456,0.6016485605015747,121.14036140555311,119.19199923500162,1.9483621705514906,0.02478503510332278,1
-1.9073486624999998,3.0275526884668835,2.13623,-7.507324,9.643554,0.8283341428571429,2.6626584875,7.377715705957336,9.58252,-13.12256,22.705080000000002,2.4414064285714288,-0.9613038249999997,7.891310407953123,12.146,-14.16016,26.30616,0.017438571428571477,-0.044921877500000006,0.05660032250348588,0.03662109,-0.1303711,0.16699218999999998,0.010951451571428572,-0.8737182625,0.01597410522966446,-0.8461913999999999,-0.8911133,0.04492190000000007,0.006068642857142862,-0.46264649999999996,0.02432599578734062,-0.4306641,-0.5,0.0693359,-0.00041852857142858434,0.9913786718798817,0.013347979941522316,1.0034026769932731,0.9640623443143368,0.03934033267893633,-0.005620047525562333,-119.66515,1.4308363238729587,-118.147,-121.712,3.5649999999999977,-0.3774571428571432,3.970184175,3.1187613245126413,8.475952,0.1812744,8.2946776,-0.7188198571428571,-17.7085875,2.152948549108209,-14.85901,-21.95618,7.09717,-0.5736442857142856,121.08431847254774,1.5307837021030901,123.02218852944759,119.37899961670982,3.64318891273777,0.44475784041797184,1
-0.6408691874999999,3.239384251184404,2.197266,-7.507324,9.70459,1.3863699999999999,1.861572275,5.042489586522259,8.972168,-6.04248,15.014648000000001,-1.107352142857143,0.33569326250000014,7.1526943712841,12.146,-14.16016,26.30616,2.1100730857142858,-0.0026245124999999996,0.017502271958021395,0.03662109,-0.0234375,0.06005859,0.0018136164285714287,-0.86309815,0.021369837277206555,-0.8227538999999999,-0.8911133,0.06835940000000007,0.0023018999999999995,-0.46917724999999993,0.019662352253772407,-0.4418944999999999,-0.5,0.05810550000000009,-0.002232142857142857,0.9827508736997004,0.017863718339030495,1.0021832196861808,0.9510967946416967,0.05108642504448413,-0.0010333604035392488,-120.29755,0.91801647199663,-119.328,-121.712,2.3840000000000003,0.023542857142857088,1.3128660500000002,0.6738927809910057,2.620239,0.1812744,2.4389646000000003,-0.15380857142857146,-18.929445,1.6048753673995106,-16.82007,-21.95618,5.136109999999999,-0.05257857142857146,121.79525042505357,0.9876158933919486,123.02218852944759,120.73464421878123,2.2875443106663624,-0.01807590238424999,1
0.3749303,1.1853129802323337,2.197266,-0.4882813,2.6855473,-0.010172533333333345,-0.9940010571428571,2.3708874668214786,1.220703,-6.04248,7.263183000000001,0.9562173666666668,0.18310542857142859,0.6174313819845644,0.793457,-1.037598,1.831055,0.02034505,-0.007393973142857143,0.007369804851809679,-0.001953125,-0.0234375,0.021484375,0.002848307333333333,-0.8677455285714285,0.02016474801898224,-0.8227538999999999,-0.8798828,0.05712890000000004,-0.0090332,-0.45521764285714283,0.014812213165139265,-0.4360351999999999,-0.4765625,0.0405273000000001,0.0042317666666666824,0.9801371605945002,0.014262715750042898,0.991784407705833,0.9510967946416967,0.04068761306413626,0.005854985231310376,-119.34684285714287,0.6101584134663801,-118.7512,-120.4047,1.6535000000000082,0.2481166666666681,1.5404401428571428,0.23838605029896956,1.774292,1.148071,0.6262209999999999,0.10253916666666667,-18.341675714285714,1.0138927744236925,-17.31995,-20.4126,3.0926500000000026,0.5154416666666671,120.76103235181485,0.7490574601607012,122.12814617389,120.10328304364488,2.024863130245123,-0.3240859928735655,1
-0.25285992857142864,0.41609769897977367,0.2441405999999999,-0.9155273,1.1596678999999999,0.01017251666666665,-0.04359652857142853,0.26065726045374676,0.4882813,-0.3051758,0.7934570999999999,0.0,0.0959123942857143,0.26803896478938066,0.5493163999999999,-0.1831055,0.7324219,-0.06103514999999998,-0.006696428714285714,0.0019473035475513069,-0.00390625,-0.009277344,0.005371094,-0.00016276049999999995,-0.8754882714285716,0.0025527870257911374,-0.8725586,-0.8798828,0.007324200000000003,0.0004882833333333206,-0.45235771428571425,0.008309650644968714,-0.4360351999999999,-0.4604492,0.024414000000000102,-0.004069000000000017,0.9855014895824886,0.002835869540895844,0.9879039484641171,0.9793817917583073,0.008522156705809802,0.0014203594509683004,-119.10199999999999,0.26951191686701503,-118.7512,-119.35,0.5987999999999971,-0.0970500000000006,1.8150984285714284,0.0670418631798002,1.911621,1.746826,0.16479500000000002,0.00915533333333333,-16.965242857142858,0.6602994808851078,-16.11694,-17.88574,1.7687999999999988,0.2947999999999998,120.31962759499456,0.17908494200889638,120.51159360799475,120.10328304364488,0.40831056434987545,0.05452299747750781,1
2.0828242875,5.324763328067678,15.07568,-0.9155273,15.991207300000001,0.07847377142857144,1.09100343,3.4307803848161567,9.399414,-1.586914,10.986328,-0.19182477142857143,-0.76293938,1.451705739829438,0.2441405999999999,-3.601074,3.8452146,-0.03487723714285714,-0.0007934568750000001,0.013857305110234338,0.03027344,-0.009277344,0.039550784,0.005580357571428571,-0.87994385,0.010385729635005354,-0.8725586,-0.8989258,0.026367200000000035,-0.0034877285714285705,-0.44128417499999995,0.02711453671286994,-0.3959960999999999,-0.4604492,0.0644531000000001,0.007952014285714284,0.984850704636925,0.0030839670325231547,0.9879039484641171,0.9778563517677982,0.010047596696318939,-0.000252503619823636,-118.537675,1.2424741236167238,-116.142,-119.35,3.2079999999999984,0.4394428571428587,1.444015545,0.707698654360374,1.911621,0.02197266,1.88964834,-0.26994976285714284,-16.20551875,0.3722322561611036,-15.80933,-16.84753,1.0381999999999998,0.13968285714285703,119.6511592384885,1.26253726614024,120.51159360799475,117.22121656022978,3.290377047764977,-0.4566561845422318,1
1.5157058666666672,7.580891022676875,15.07568,-8.300781,23.376461,-1.9409180000000004,0.26448565666666674,5.401065318799792,9.399414,-7.385254,16.784668,-1.464843768,-1.2817381666666667,1.6526894281863278,0.3662109,-3.601074,3.9672849,-0.45166011999999994,0.010091147333333333,0.015290820591198415,0.03027344,-0.0078125,0.03808594,0.005371094,-0.8903808666666667,0.011429340991967426,-0.8745117,-0.9008789,0.026367200000000035,-0.004394539999999991,-0.4112955666666666,0.03211044372335371,-0.3828125,-0.4575194999999999,0.07470699999999991,0.014355459999999987,0.9814230746600257,0.004332715557007769,0.9869933340572214,0.9761372644308898,0.010856069626331677,-0.0021712139252663353,-117.10145,1.5074965960160576,-115.5597,-119.1687,3.6089999999999947,0.6349999999999995,0.7296752850000002,0.8055115455440773,1.829224,0.02197266,1.8072513399999999,-0.33618172,-15.762633333333332,0.27491542086006515,-15.3479,-16.08398,0.7360800000000012,0.11865200000000016,118.16223137412841,1.5207296341372856,120.2441088048715,116.59776447892834,3.6463443259431614,-0.6478658219038806,1
-3.6417643,4.144252489266149,-0.3662109,-8.300781,7.9345701,-0.9460450499999999,-2.7669270333333333,4.083581990426199,0.3662109,-7.385254,7.7514649,-0.82397445,-0.3458658333333333,1.449932839910057,0.6103516,-2.01416,2.6245116,0.12207035,0.02115885666666667,0.0049874834995750445,0.02685547,0.01757813,0.009277339999999999,0.004638669999999999,-0.8933919333333332,0.009421847738280082,-0.8828125,-0.9008789,0.018066400000000038,0.009033200000000019,-0.39876303333333324,0.025132665008377658,-0.3828125,-0.4277343999999999,0.044921899999999904,-0.022460949999999952,0.9788264056086108,0.0026075567962035562,0.9813438965869868,0.9761372644308898,0.0052066321560970685,0.0011729203895156082,-116.56496666666668,1.382455067383137,-115.5597,-118.1415,2.581799999999987,-1.2908999999999935,0.4595947833333333,0.582491402932619,1.131592,0.09887695,1.03271505,0.516357525,-14.558716666666667,1.5216759011804495,-12.80457,-15.52368,2.7191100000000006,1.3595550000000003,117.48043564652977,1.1938194033471687,118.83876276530889,116.59776447892834,2.2409982863805453,1.1204991431902727,1
-0.6866455500000002,2.883709061558998,2.868652,-3.662109,6.530761,1.7089843333333334,-0.3051757500000001,2.388443049510479,2.13623,-3.173828,5.310058,1.1393226666666667,0.015258800000000017,0.6311066841877264,0.6103516,-0.8544921999999999,1.4648438,-0.10172526666666666,0.007812500325,0.01321069317115875,0.02685547,-0.002441406,0.029296876,-0.009765625333333333,-0.874267575,0.006131122959336277,-0.8691405999999999,-0.8828125,0.01367190000000007,0.0027669333333333324,-0.4522705249999999,0.01926236017580662,-0.4277343999999999,-0.4697266,0.04199220000000009,-0.012532533333333337,0.9845641479291655,0.005687173376546559,0.9906111972535677,0.9783497279325805,0.012261469320987262,0.003089100222193627,-119.135725,0.6972215830231742,-118.1415,-119.7729,1.6314000000000135,-0.38816666666666794,1.29364025,0.11887746673606121,1.411743,1.131592,0.28015100000000004,0.053100666666666685,-12.612305,0.13068886346331632,-12.51343,-12.80457,0.2911400000000004,0.0823999999999998,119.80861868889126,0.6807825596578941,120.43307902346827,118.83876276530889,1.594316258159381,0.3777385218723121,1
-0.06103515142857147,1.9054961273199496,2.868652,-3.662109,6.530761,0.5900064500000001,0.08719306571428573,1.6632712166861583,2.13623,-3.173828,5.310058,0.5391438599999999,-0.04359654285714286,0.38069874605589327,0.3051758,-0.8544921999999999,1.159668,0.14241536666666665,0.00020926332857142856,0.002900477445840602,0.006347656,-0.002441406,0.008789062,-0.0010579426666666666,-0.8743024428571428,0.003150030660621766,-0.8691405999999999,-0.8769530999999999,0.0078125,-0.0010579333333333347,-0.45584544285714285,0.008447192740363941,-0.4462891,-0.4697266,0.0234375,-0.001383449999999999,0.9860346505158287,0.003806378345182952,0.9906111972535677,0.9783497279325805,0.012261469320987262,0.0015708090971515338,-119.17262857142859,0.3241996695160054,-118.8776,-119.7729,0.895300000000006,0.07323333333333437,1.342686285714286,0.06041286064714554,1.439209,1.2854,0.15380899999999986,-0.00915533333333333,-12.229352857142858,0.3303157613917474,-11.74988,-12.57385,0.823970000000001,0.1373283333333335,119.80632864611289,0.35105672792972725,120.43307902346827,119.46925712828552,0.9638218951827469,-0.0868995845960896,1
0.26448569333333327,0.64376906981139,1.89209,-0.1831055,2.0751955,0.23651125,0.2373589577777778,0.4632689468645703,1.159668,-0.2441405999999999,1.4038085999999999,0.038146975,0.03390841777777777,0.0813802004166667,0.2441405999999999,0.0,0.2441405999999999,-0.022888179999999987,-0.0004340278555555555,0.0007890105232468625,0.0004882813,-0.001464844,0.0019531253,0.0,-0.8766818555555554,0.0008840124633045229,-0.8754883,-0.8784179999999999,0.002929699999999924,6.103749999999963e-05,-0.4512803999999999,0.0032368274019478026,-0.4438476999999999,-0.4545898,0.010742100000000088,0.0009765625,0.9860186502445968,0.001851143181288531,0.9877745825154897,0.9815715409485567,0.006203041566932965,-0.0004989107447183477,-118.8733,0.13935124685484762,-118.5974,-119.1083,0.5109000000000066,0.06386250000000082,1.2084961,0.15573392921772056,1.439209,0.9667969,0.4724121,-0.0590515125,-11.750488888888889,0.2591186804074747,-11.51917,-12.18933,0.6701599999999992,0.07553125000000005,119.45908229055567,0.15755268830520305,119.73904215954201,119.16581750490468,0.573224654637329,-0.07165308182966612,1
0.21362306250000002,0.7214404763908088,1.89209,-0.3051758,2.1972658000000003,0.008719314285714302,0.2746582075,0.4328150784396514,1.159668,-0.1831055,1.3427734999999998,-0.03487723714285714,0.04577636999999999,0.0711038120593006,0.1831055,0.0,0.1831055,0.01743861428571427,-0.00024414062499999997,0.0010761195666409973,0.001464844,-0.001953125,0.003417969,0.00013950895714285715,-0.8782959124999999,0.0021953312170783106,-0.8754883,-0.8813477,0.005859399999999959,-0.00041852857142857643,-0.44976806249999995,0.0044249412909543795,-0.4438476999999999,-0.4550781,0.011230400000000085,-0.0002092571428571412,0.9867681023890155,0.0026521338260949876,0.9910355677687679,0.9815715409485567,0.009464026820211191,0.00046802089355230906,-118.72099999999999,0.16435505120665755,-118.515,-118.938,0.4230000000000018,0.04472857142857224,1.0670471,0.10384227911263173,1.263428,0.9667969,0.29663110000000004,-0.03766744285714285,-11.3990025,0.2370054301216387,-10.96436,-11.59607,0.63171,0.09024428571428571,119.27198254873447,0.1791690558080757,119.50863121028576,119.05412270086015,0.45450850942560805,-0.05341463254121136,1
-0.04359655714285714,0.640834539403932,0.9155273,-1.159668,2.0751953,0.07120768333333331,0.06103514285714283,0.2927143283723308,0.6713867,-0.1831055,0.8544922,-0.14241536666666668,0.04359654285714284,0.07651162485604952,0.1831055,0.0,0.1831055,-0.030517583333333334,-0.00013950889999999995,0.0013136577810518373,0.001464844,-0.001953125,0.003417969,0.00032552088333333333,-0.8798828142857141,0.001054817700566592,-0.8779296999999999,-0.8813477,0.003418000000000032,0.00024414999999999853,-0.44803291428571423,0.004227294897223899,-0.4428710999999999,-0.4550781,0.012207000000000079,0.000651033333333347,0.9873913825190137,0.00195808563526597,0.9910355677687679,0.9850536527108532,0.005981915057914677,-0.0005112963906090395,-118.5817,0.12857327353173484,-118.3502,-118.7567,0.4064999999999941,0.0274666666666666,1.0162355571428574,0.010986525001391067,1.027222,0.9997559,0.02746610000000005,0.00183116666666668,-10.734427142857143,0.4253629973216711,-10.12939,-11.27197,1.1425799999999988,0.1904299999999998,119.07154325376574,0.1415819938296211,119.22606976575022,118.78728177697114,0.4387879887790831,-0.044473487314834394,1
-0.5667550428571427,1.8675540567242972,1.708984,-3.112793,4.821777,0.4781086666666667,-0.052315885714285706,0.683692253789971,1.281738,-0.9155273,2.1972653,0.20345047333333333,0.4534040142857143,0.7424052543796558,1.953125,0.0,1.953125,0.3255208333333333,-0.005231585714285715,0.009981797943185081,0.001464844,-0.02587891,0.027343754,-0.004313151666666667,-0.8743024571428571,0.006610479842607782,-0.8652344,-0.8798828,0.014648400000000006,0.002360016666666668,-0.4478236571428571,0.010432270460588037,-0.4340819999999999,-0.4677734,0.033691400000000093,-0.003011066666666682,0.9824244756211825,0.006523516075750836,0.9881447907998301,0.9720497789745985,0.016095011825231542,-0.0006314033086619227,-118.88617142857143,0.5666153095775109,-118.3502,-119.8718,1.5215999999999923,-0.1995833333333318,1.1410088571428572,0.20572391541288904,1.576538,1.021729,0.5548089999999999,0.09155266666666666,-10.138810857142857,0.4241578418071232,-9.569092,-10.74463,1.1755380000000013,0.1959230000000002,119.32405705525707,0.5446056775490811,120.26346672622533,118.78728177697114,1.4761849492541899,0.1832214864826606,1
-5.196707714285715,5.2894901062930035,1.708984,-15.38086,17.089844,-0.12207033333333335,0.05231577142857148,4.0604710152948575,6.347656,-7.385254,13.73291,0.19327799999999998,-0.5405972285714284,5.582345913051153,7.568359,-9.58252,17.150879,-1.6479493000000003,-0.007324220428571429,0.024605369966760805,0.03662109,-0.04248047,0.07910156,0.006103515,-0.849958157142857,0.02148199799148558,-0.8203125,-0.8720703,0.051757799999999965,0.008626299999999995,-0.49923268571428564,0.05043723552444263,-0.4340819999999999,-0.5615234,0.1274414000000001,-0.021240233333333348,0.9872381544586838,0.014149139744660984,1.013202882099533,0.9720497789745985,0.041153103124934365,0.0034391830358705224,-121.72851428571428,2.5470026949524907,-118.493,-124.9475,6.45450000000001,-1.0757500000000018,1.4847237,0.6586279221116653,2.548828,0.5328369,2.0159911,-0.09246818333333333,-9.689941285714285,0.9388012036277461,-8.014526,-10.9314,2.916874,0.3131103333333334,122.12781880801244,2.513270675859597,125.20540842318545,118.91025688150144,6.295151541684007,1.049191923614001,1
-0.3280639624999999,9.573987503010713,12.69531,-15.38086,28.076169999999998,2.2670201857142858,0.2746581,3.94124289421384,6.347656,-7.385254,13.73291,-0.5580357142857142,0.12207005749999988,5.428159656688169,7.568359,-9.58252,17.150879,-1.0724748342857142,-0.0153198257125,0.036077095390884835,0.03662109,-0.08544922,0.12207031000000002,-0.01220703142857143,-0.850708,0.022522634948868653,-0.8203125,-0.8769530999999999,0.05664059999999993,-0.0018136142857142806,-0.5082397375,0.04451472521280177,-0.4370117,-0.5615234,0.1245117,0.010532928571428568,0.9927062783166026,0.010543104133704639,1.013202882099533,0.9796077532154971,0.03359512888403582,-0.0030736052529583635,-121.805425,2.7097542733876905,-118.0481,-124.9475,6.8994,0.5100857142857141,1.4144897749999998,0.832007790598963,2.548828,0.1318359,2.4169921,0.09495328571428573,-9.058227500000001,1.0889933408418988,-8.014526,-10.9314,2.916874,0.3499935714285713,122.15672576526022,2.707972194172291,125.20540842318545,118.36993756931412,6.835470853871328,-0.5352524806010125,1
3.70788585,5.310684880593134,12.69531,-0.4272460999999999,13.122556099999999,-1.8746508714285712,0.09918194500000008,1.6158061360697569,2.441406,-2.01416,4.455566,-0.4970005714285714,0.961303575,1.4600218583671256,3.601074,-0.2441405999999999,3.8452146,-0.3138950228571428,-0.0243530290875,0.027274452583313194,0.0004882813,-0.08544922,0.08593750130000001,-0.003417968757142857,-0.8760376,0.016755631656337432,-0.840332,-0.8916016,0.051269600000000026,-0.00578962857142857,-0.463317875,0.03495166583603093,-0.4321289,-0.5395508,0.10742190000000001,0.014090400000000003,0.9922738240027544,0.008038535475662897,1.004250247215601,0.9796077532154971,0.024642494000103876,-0.0019010927618061033,-118.89541249999999,2.098584462671037,-117.6416,-123.6896,6.048000000000002,0.8553714285714287,1.4762879125000001,0.6350301195013743,2.037964,0.1318359,1.9061281,0.24876187142857145,-8.44093325,0.31357049666553705,-8.009033,-8.811035,0.8020019999999999,0.003138999999999876,119.20591864553177,2.0810146427941385,123.95011733046712,117.93971131621215,6.0104060142549685,-0.8515821031216818,1
-1.0811942857142858,2.307450442128113,0.9765625,-4.577637,5.5541995,-0.8850098166666668,0.04359645142857148,1.0356297729743915,1.342773,-1.77002,3.112793,-0.16276035,-0.44468465142857144,0.6757321958535096,0.3051758,-1.708984,2.0141598,-0.12207031666666668,-0.019321987571428573,0.009505223481111913,-0.004882813,-0.03515625,0.030273437,0.005045572833333334,-0.8830217714285713,0.007247091437193793,-0.8720703,-0.8916016,0.01953130000000003,0.0026855499999999997,-0.4463588285714285,0.014795354470994615,-0.4291992,-0.4663085999999999,0.037109399999999904,0.00439453333333333,0.9897104837109946,0.011844019639118821,1.004250247215601,0.971978602277603,0.032271644937997945,-0.004474018622873795,-118.1603,0.5294321423311352,-117.6416,-118.8391,1.1975000000000051,-0.15013333333333398,1.762521,0.11859933462854393,1.928101,1.598511,0.32959000000000005,-0.023803666666666667,-7.890537857142857,0.7614315687914069,-6.729126,-8.811035,2.0819090000000005,0.3469848333333334,118.43887324917443,0.4903954054004534,119.10360392223595,117.93971131621215,1.1638926060237935,0.12671300558786905,1
-0.8370535142857143,3.1594592220027784,2.624512,-4.577637,7.202149,0.08138033333333332,0.11335105714285716,0.5219947041460729,1.037598,-0.5493163999999999,1.5869144,0.0,-0.47956190571428575,1.063850841439146,0.7324219,-1.89209,2.6245119,-0.030517666666666665,-0.014508927999999999,0.007207811172553819,-0.004882813,-0.02246094,0.017578127,0.0008951833333333334,-0.8768833571428571,0.004389353894693047,-0.871582,-0.8842772999999999,0.012695299999999965,0.0010579333333333347,-0.44782367142857143,0.01395216544348512,-0.4291992,-0.4663085999999999,0.037109399999999904,0.004231766666666655,0.9848070241212614,0.008640698791519191,0.9999472723873661,0.971978602277603,0.027968670109763116,-0.0028947279872581313,-118.77945714285715,0.38562524924743363,-118.3063,-119.5477,1.241400000000013,0.037533333333333495,1.6612898571428574,0.17230961839319797,1.928101,1.389771,0.53833,-0.038452166666666655,-6.798183000000001,0.4755937039925291,-6.322632,-7.723389,1.4007570000000005,0.23345950000000007,118.98636027353874,0.3856400612913338,119.73766439206398,118.4975374308472,1.2401269612167738,-0.051796136834563335,1
0.26702901250000005,2.5520198328979524,3.845215,-3.662109,7.5073240000000006,-0.38364955714285714,-0.5798339,1.5751327658335046,1.037598,-3.295898,4.333496,0.17438615714285713,0.06866457,1.2531598759145803,2.258301,-1.89209,4.150391,-0.061035157142857135,-0.01519775325,0.01020375118199362,-0.002929688,-0.03515625,0.032226562,0.0002790178571428571,-0.877990725,0.0032224320556951073,-0.871582,-0.8813477,0.009765699999999988,-0.0013253428571428558,-0.44488526249999993,0.011867299375286647,-0.4272460999999999,-0.4638672,0.03662110000000007,0.0023018999999999995,0.9844938808302277,0.00438139094414377,0.9886378591154804,0.9771762211017992,0.011461638013681164,0.00011235014533307806,-118.5060875,0.5102899636131284,-117.8833,-119.5477,1.6644000000000005,0.1804857142857149,1.576538,0.15403256492795842,1.851196,1.389771,0.461425,0.008631999999999973,-6.337738125,0.237575203530189,-5.883179,-6.59729,0.7141109999999999,0.10201585714285713,118.68618492806914,0.5156651823929977,119.73766439206398,118.06389902444606,1.6737653676179178,-0.18546693587051624,1
0.5569458875000001,2.1671318001448956,3.845215,-1.953125,5.79834,0.0,-0.6942747825000001,1.6065576069686682,1.037598,-3.295898,4.333496,-0.22670205714285713,0.1678467125,0.9974561343192282,2.258301,-1.159668,3.417969,-0.24414065714285713,-0.01464843775,0.009776082259989204,-0.002929688,-0.03515625,0.032226562,-0.000697545,-0.8796386875,0.0020047640056607232,-0.8754883,-0.8813477,0.005859399999999959,0.0,-0.44238281249999994,0.00867987555250444,-0.4272460999999999,-0.4511718999999999,0.023925799999999997,0.0014648428571428468,0.984792171356359,0.004634531348822106,0.9901642384354933,0.9771762211017992,0.012988017333694035,-0.0006530685230207485,-118.2554625,0.254611227097875,-117.8833,-118.5425,0.6591999999999985,0.07611428571428494,1.5621185,0.1553407301717284,1.851196,1.417236,0.4339600000000001,-0.024326857142857143,-5.871505750000001,0.35571240579504665,-5.471191,-6.37207,0.9008789999999998,0.10593971428571423,118.41200622565083,0.24966149387174785,118.68318669920467,118.0353858491899,0.6478008500147752,-0.08155776153045581,1
0.48828122500000004,1.8298919085369751,3.845215,-2.563477,6.408692,-0.36621099999999995,-0.5187987199999999,0.8790514112515976,0.6103516,-2.13623,2.7465816,0.13078958571428573,0.28991704499999993,0.8417859755111772,2.197266,-0.5493163999999999,2.7465824,-0.07847377142857144,-0.018249512375,0.007386442793234062,-0.009277344,-0.03076172,0.021484376,-0.002232142857142857,-0.8856811625,0.006358044440130843,-0.8779296999999999,-0.8935546999999999,0.015625,-0.001883371428571439,-0.430542,0.016725726083662663,-0.4057617,-0.4511718999999999,0.0454101999999999,0.0031389428571428585,0.985112921305326,0.0035463876866265844,0.9901642384354933,0.9798818363752123,0.01028240206028097,0.00037033327640537524,-117.51045,0.8954381832376817,-116.532,-118.5425,2.0105000000000075,0.2259999999999991,1.8244170000000002,0.33481168820696805,2.290649,1.433716,0.8569330000000002,0.08082785714285715,-5.148468,0.49577559290008283,-4.44397,-5.72937,1.2854,0.18362857142857145,117.63856569476422,0.9094297946642876,118.68318669920467,116.64836387798232,2.034822821222349,-0.23230655435709682,1
-1.2817383000000002,2.324149466371515,1.89209,-5.249023,7.141113000000001,-1.1901855000000001,-0.06975445714285713,1.3699766655487322,2.13623,-2.13623,4.27246,0.23396801666666667,-0.21798263428571435,1.274869101031509,2.197266,-1.953125,4.150391,-0.5187988833333333,-0.018205916142857142,0.01132459728219908,0.0,-0.03076172,0.03076172,0.0027669278333333335,-0.8861607142857143,0.007482177727424149,-0.8730469,-0.8935546999999999,0.020507799999999965,0.0027669166666666745,-0.42515347142857146,0.01470721023044073,-0.4057617,-0.4467773,0.041015599999999985,-0.005289699999999999,0.9832049801407547,0.0047107441119099615,0.9889798554624355,0.9765459034014718,0.012433952060963649,-0.000199440996476045,-117.33947142857143,0.8682608089629246,-116.532,-118.7402,2.208200000000005,-0.3341666666666659,1.7994034142857143,0.5267125058880174,2.290649,0.9667969,1.3238521000000003,-0.14648435,-4.715489,0.2171909353004094,-4.44397,-5.119629,0.6756589999999996,0.07232666666666665,117.44919918456398,0.8608944161922402,118.83654861305679,116.64836387798232,2.188184735074472,0.3290935065407557,1
2.6489257999999998,7.9876341372884445,13.85498,-5.249023,19.104003,3.92150875,1.35498032,1.363012055221298,2.868652,-0.7324219,3.6010739,-0.15258774999999997,-0.39062498000000007,1.1839876464798553,0.8544921999999999,-1.953125,2.8076172,0.381469725,-0.0041015630999999995,0.01323593759038217,0.01074219,-0.02539063,0.03613282,0.009033205,-0.88183592,0.006243493317206333,-0.8730469,-0.8901367,0.017089800000000044,-0.0025634750000000095,-0.44101563999999993,0.022507050849744813,-0.4179688,-0.4746093999999999,0.05664059999999993,0.0012207000000000051,0.9862295105095168,0.009627487951129927,1.0014437531741291,0.9765459034014718,0.0248978497726573,0.001723832188862684,-117.97998,1.0155869421177102,-116.3947,-118.9105,2.5157999999999987,0.31172499999999914,1.1513672400000001,0.5304049381290705,2.059937,0.736084,1.3238530000000002,-0.33096325000000004,-4.7021484000000004,0.09616942660898006,-4.586792,-4.833984,0.24719200000000008,-0.042572000000000054,118.0802594208827,1.0133224003330858,119.00428254029124,116.49419649867309,2.510086041618152,-0.3137019908987497,1
4.63867175,7.669895734231653,13.85498,-1.831055,15.686035,-3.1941733333333335,1.1138915249999999,1.376903041681622,2.868652,-0.1831055,3.0517575,-0.8748371333333335,0.457763675,0.4033249572535722,0.8544921999999999,0.0,0.8544921999999999,-0.16276043333333334,-0.0018310551249999998,0.00921610885817681,0.01074219,-0.01025391,0.0209961,-0.0030924491666666667,-0.897460925,0.013677706122586265,-0.8818359,-0.9091797,0.02734380000000003,-0.008951833333333345,-0.41516117499999994,0.04279522559432496,-0.3813476999999999,-0.4746093999999999,0.0932617,0.029296866666666643,0.9896095016564783,0.008073483677800988,1.0014437531741291,0.9834412321569226,0.018002521017206563,-0.004610724319217163,-116.16395,2.006630101272611,-114.516,-118.9105,4.394499999999994,1.3586333333333347,0.9846495749999999,0.22805441347155694,1.18103,0.736084,0.44494600000000006,0.10986323333333337,-4.5222472499999995,0.21516466066151146,-4.301147,-4.75708,0.4559329999999999,0.1153566666666667,116.25639168585057,2.0095035943568926,119.00428254029124,114.60595339958535,4.398329140705897,-1.3610494118128713,1
-2.4719238333333338,1.5405785314272578,-1.342773,-5.065918,3.7231449999999997,0.0854492,-0.21362306666666664,0.27227427920977526,0.2441405999999999,-0.4882813,0.7324218999999998,-0.06103516,-0.11189777666666667,0.41110094911599904,0.3051758,-0.793457,1.0986327999999999,0.06103516,-0.0065104175,0.002790760912027596,-0.002441406,-0.01025391,0.007812504,0.000390625,-0.90152995,0.008578581333705503,-0.887207,-0.9091797,0.021972700000000067,0.004394540000000014,-0.4007975333333333,0.01742393549513619,-0.3813476999999999,-0.4248047,0.04345700000000008,-0.008691400000000016,0.986789986951965,0.002087755935939036,0.9893414480125741,0.9836763369390782,0.0056651110734958765,-0.0004530208278610948,-115.71626666666667,1.1460960582196713,-114.516,-117.4933,2.9772999999999996,-0.5954599999999999,1.1141966666666667,0.07551181919584952,1.18103,1.016235,0.16479500000000002,-0.03076159999999999,-4.025573666666667,0.3147811951401587,-3.598022,-4.383545,0.785523,0.15710459999999998,115.79210380884406,1.1340276148449355,117.55286679719796,114.60595339958535,2.9469133976126187,0.5893826795225238,1
-1.4190674125,2.4159328012967145,2.13623,-5.065918,7.202147999999999,0.4970004285714285,-0.12207031249999997,0.45088183329917714,0.6103516,-0.4882813,1.0986329,0.017438628571428565,0.0839232875,0.6300339804901116,1.342773,-0.793457,2.13623,0.017438617142857143,-0.006835938,0.0027744399659610074,-0.002441406,-0.01074219,0.008300784,-0.00027901814285714296,-0.8911743249999999,0.00905415724527375,-0.8818359,-0.9067383,0.02490239999999999,0.002929685714285725,-0.42327879999999996,0.018672599692521205,-0.3935547,-0.4477539,0.0541992,-0.005440842857142858,0.9868018907483895,0.00319412581106761,0.9903530813187237,0.9813944009461114,0.008958680372612271,-0.00038374130026333893,-117.0778875,1.1486363386176015,-115.1038,-118.3063,3.2024999999999864,-0.34762857142857023,1.139144875,0.10351746116399532,1.296387,1.016235,0.28015199999999996,0.01804899999999998,-3.66325375,0.28750144864864835,-3.257446,-4.180298,0.9228519999999998,0.09573799999999995,117.14115147575032,1.1392215733151696,118.35799806171238,115.18562700602337,3.1723710556890126,0.3444457892103624,1
-0.47084267142857134,1.875185065513859,2.13623,-2.868652,5.004882,0.42724616666666665,-0.13950892857142855,0.6379213353900665,0.6103516,-1.159668,1.7700196,-0.12207031666666668,0.2528598514285714,0.5219944685664193,1.342773,-0.1831055,1.5258785,-0.040690100000000014,-0.009416854428571429,0.002699778699199366,-0.005371094,-0.01367188,0.008300786000000001,-0.00040690100000000004,-0.883510057142857,0.0023897306688251897,-0.8798828,-0.8867187999999999,0.006835999999999953,0.0011393333333333255,-0.4411969857142858,0.008242455740742253,-0.4306641,-0.4506835999999999,0.020019499999999912,-0.0016276166666666647,0.9876199732935216,0.0033539427257845114,0.9912511085166553,0.9813944009461114,0.00985670757054391,-0.0002830530196457441,-118.04497142857144,0.34798166481528614,-117.5372,-118.4436,0.906400000000005,-0.10161666666666729,1.2704904285714285,0.1199187118549578,1.400757,1.087646,0.31311100000000014,0.04669200000000003,-3.298252714285714,0.2696849842104143,-2.8125,-3.543091,0.730591,0.11901849999999999,118.09820475120834,0.34222980469576403,118.48488261621735,117.5967475304959,0.8881350857214443,0.0988672900540853,1
-0.39236880571428573,1.1379725799219813,0.4882813,-2.868652,3.3569333,0.5594888833333334,-0.1569475485714286,0.5225041394472805,0.3051758,-1.159668,1.4648438,0.020345049999999986,0.03487722285714283,0.13117657366906757,0.2441405999999999,-0.1831055,0.4272460999999999,-0.040690099999999986,-0.011928014857142857,0.0016643916508838326,-0.009277344,-0.01367188,0.004394536000000001,0.00016276166666666687,-0.8816964285714286,0.001313663830303499,-0.8798828,-0.8837891,0.003906300000000029,0.0003255333333333314,-0.44566127142857137,0.003973985290492096,-0.4389648,-0.4506835999999999,0.011718799999999918,-0.0011393333333333349,0.9880079569372272,0.0017097683372547775,0.9912511085166553,0.9858005602589878,0.0054505482576675535,0.0002171957899596381,-118.2693857142857,0.21954552624737614,-117.7899,-118.4436,0.6537000000000006,-0.07873333333333221,1.3685825714285713,0.024857057447581772,1.400757,1.340332,0.06042499999999995,-0.00915533333333333,-2.8336881428571425,0.2867942160263049,-2.532349,-3.339844,0.8074949999999999,0.13458249999999997,118.31155150789634,0.21474815682203569,118.48488261621735,117.84556512710772,0.6393174891096294,0.07525001408266736,1
-0.5722044049999999,4.370479546045084,4.516602,-10.19287,14.709471999999998,-0.34877237142857137,-0.06103515499999998,0.3043026050559103,0.3051758,-0.5493163999999999,0.8544921999999999,-0.05231585714285714,0.09155282499999996,0.8259905704236031,1.77002,-1.281738,3.051758,-0.017438617142857143,-0.013671875625,0.0028231181941066478,-0.009765625,-0.01904297,0.009277345,0.0005580364285714287,-0.8798217749999999,0.004146815234007884,-0.8740234,-0.8867187999999999,0.012695399999999912,0.0004882857142857189,-0.4471435625,0.009456443957419814,-0.4350585999999999,-0.4648438,0.029785200000000067,-0.0032087142857142948,0.987065601862223,0.0037653544552665175,0.9930148721263143,0.9794986350470122,0.013516237079302162,0.0010306159810466533,-118.48,0.38269203582739286,-117.9932,-119.0863,1.0930999999999926,-0.10829999999999984,1.371917625,0.060585172009417605,1.505127,1.30188,0.20324700000000018,0.01491000000000001,-2.519989125,0.17325562499665678,-2.197266,-2.741089,0.5438230000000002,0.07768900000000002,118.51486762419967,0.3804940978152148,119.11607881747487,118.02757507816554,1.0885037393093313,0.10683510424456699,1
-0.28228739999999986,4.5542599423600345,4.516602,-10.19287,14.709471999999998,-0.5405971428571429,-0.09155273749999998,0.5468889880824259,0.9155273,-0.9155273,1.8310546,-0.16566684285714284,0.007629492499999974,0.8901438465402797,1.77002,-1.281738,3.051758,-0.05231584285714282,-0.015319825375000002,0.005060505565758621,-0.006835938,-0.02197266,0.015136722000000002,0.0011160717142857143,-0.877807625,0.006018545734821878,-0.8691405999999999,-0.8867187999999999,0.01757819999999999,6.975714285714243e-05,-0.44989015,0.02023854638928965,-0.4326172,-0.4916992,0.05908200000000002,-0.008091514285714299,0.9866373807084233,0.012705507765784373,1.0135182940920355,0.9711054639387401,0.042412830153295444,0.003673177721270563,-118.69630000000001,0.4565494934834534,-117.9932,-119.35,1.3567999999999927,-0.19382857142857038,1.390457125,0.13894984559538795,1.565552,1.131592,0.4339600000000001,-0.0306047142857143,-2.19795225,0.29107762380002933,-1.653442,-2.510376,0.8569339999999999,0.12241914285714284,118.7251834164891,0.453851288544764,119.36681645625734,118.02757507816554,1.339241378091799,0.191320196870257,1
0.03814696250000005,1.693637283799598,2.624512,-2.441406,5.065918,-0.07847375714285716,-0.328064025,0.7997619276411642,0.9155273,-1.403809,2.3193363000000002,-0.18310552857142862,-0.10681155500000002,0.5308405537570285,0.4272460999999999,-1.037598,1.4648440999999999,-0.017438614285714273,-0.015319824000000003,0.006323127522144085,-0.006835938,-0.02490234,0.018066402,-0.00041852571428571385,-0.872680675,0.00784188715402285,-0.8618163999999999,-0.8862304999999999,0.024414099999999994,0.0010463142857142862,-0.45513916249999997,0.024940518862396108,-0.4316406,-0.4921875,0.060546900000000015,-0.0027204285714285603,0.9845632325924885,0.016079235372196823,1.0135182940920355,0.9700743440112918,0.043443950080743754,0.00031583007312869463,-119.16527500000001,0.6281980983052114,-118.2843,-119.9158,1.6315000000000026,-0.15381428571428607,1.38153075,0.1455429115364263,1.565552,1.131592,0.4339600000000001,-0.011771142857142853,-1.6300965,0.4578972552312207,-1.054688,-2.268677,1.2139889999999998,0.16636442857142855,119.18530421081705,0.6225914629483291,119.93005432189045,118.30830097311465,1.6217533487757976,0.15128452355540997,1
1.0070801124999997,3.242011910803705,7.629395,-2.441406,10.070801,-0.30517574285714283,-0.6484986625,1.6955214509435195,2.13623,-2.746582,4.8828119999999995,-0.2179827142857143,0.12969966999999993,0.6371736304843035,0.9765625,-1.037598,2.0141605,0.0,-0.01660156175,0.009603849946923305,-0.00390625,-0.03417969,0.03027344,-0.002999442857142857,-0.8724365374999999,0.007269388861115314,-0.8618163999999999,-0.8837891,0.021972700000000067,-0.0014648571428571408,-0.45532226249999996,0.02656152399403195,-0.4145508,-0.4921875,0.0776367,0.0024413999999999985,0.98455274125647,0.012633500679075,1.004848679157898,0.9700743440112918,0.03477433514660633,0.0003274722206773844,-119.103475,0.9321106368268292,-117.5812,-120.0421,2.4609000000000094,0.1844142857142868,1.44332875,0.3181263582912344,2.131348,1.142578,0.9887699999999999,0.11928014285714286,-1.323852625,0.20401981868992006,-1.054688,-1.658936,0.6042479999999999,0.021188000000000016,119.12013043083982,0.9278351060274314,120.05415755228077,117.6074802028585,2.4466773494222736,-0.1828953840247343,1
1.9226074499999999,2.6353379402600705,7.629395,-1.281738,8.911133,0.008719285714285707,-0.2212524875,1.9604511608818607,2.197266,-2.746582,4.943848,-0.24414062857142854,-0.22125238750000004,1.0123834688146953,0.9765625,-2.075195,3.0517575,0.13078961428571428,-0.0189208975,0.008667115220140601,-0.00390625,-0.03417969,0.03027344,-0.0016741071428571428,-0.882568375,0.007746831318259836,-0.8696288999999999,-0.8930663999999999,0.0234375,-0.0027901857142857184,-0.4429931625,0.023215190000941643,-0.4145508,-0.4897460999999999,0.07519529999999991,0.007603242857142843,0.9879501607337466,0.009082259170971496,0.9986679137298111,0.9723666495560335,0.02630126417377765,-0.0010572681259287992,-118.0611375,0.9297871445159616,-117.4109,-120.0421,2.631200000000007,0.3719571428571434,1.5628051250000001,0.30705630770985753,2.131348,1.142578,0.9887699999999999,0.05336228571428573,-1.2119294625,0.28391803817021827,-0.7250977,-1.658936,0.9338383,0.0659179,118.07835925923729,0.9282043115507904,120.05415755228077,117.42492184835976,2.6292357039210117,-0.37181648332283146,1
0.00762935000000009,1.413983744672279,1.89209,-2.258301,4.150391,-0.3662109571428571,0.0610351375,1.2004813003813333,2.197266,-1.098633,3.295899,-0.3400530714285714,-0.4501342375,1.2698235444146504,0.9765625,-2.319336,3.2958985,0.29645642857142857,-0.011962889625,0.008789061170634974,0.0,-0.02441406,0.02441406,0.0021623880000000003,-0.8852539125,0.005670309209366057,-0.8769530999999999,-0.8930663999999999,0.016113299999999997,0.00202287142857143,-0.44049071249999994,0.009728713515074492,-0.4194335999999999,-0.4501952999999999,0.030761700000000003,-0.00013949999999999876,0.9889350524905799,0.006384979222907009,0.9986679137298111,0.9779675147386203,0.020700398991190805,-0.0017797956726573869,-117.87575000000001,0.4681391612391692,-117.4109,-118.5315,1.120599999999996,-0.12948571428571296,1.2284088125000001,0.4121488287503139,1.746826,0.6536865,1.0931395,-0.10515485714285713,-1.00868235,0.17546068853448138,-0.7250977,-1.329346,0.6042483,0.059640114285714266,117.88722253552532,0.4647096510906158,118.53931664128797,117.42492184835976,1.1143947929282092,0.12767653047857713,1
-0.7585798085714285,0.7654639362410136,-0.06103516,-2.258301,2.19726584,0.36621097333333336,-0.052315891428571404,0.668075693400127,1.281738,-0.793457,2.075195,-0.23396804999999998,-0.008719314285714277,1.0835121926296405,0.9765625,-2.319336,3.2958985,0.40690104999999993,-0.006277902,0.003570674685475561,0.0,-0.009277344,0.009277344,-0.0013834635,-0.8797433,0.005142151696517738,-0.8759766,-0.8901367,0.014160100000000009,0.002360016666666668,-0.4488002285714285,0.004325556064721342,-0.4418944999999999,-0.4541016,0.012207100000000082,-0.0016276166666666647,0.9876477430365184,0.0035655477755189573,0.9937877508890618,0.983335975534629,0.010451775354432757,-0.0013651761690543125,-118.46792857142857,0.3716618611690194,-117.7295,-118.7622,1.0327000000000055,-0.17211666666666758,0.9150041571428572,0.12633707095214056,1.010742,0.6536865,0.3570555000000001,0.01556396666666667,-0.9330530999999999,0.09177731440390562,-0.8569336,-1.115112,0.25817840000000014,0.01007080000000001,118.47522420027259,0.3717749737667226,118.76948723858729,117.73652066999651,1.0329665685907798,0.17215544196177035,1
-0.061035159999999936,0.5008355209294351,0.9765625,-0.5493163999999999,1.5258789,0.010172516666666659,-0.41852680571428574,0.8966344063348247,0.3051758,-2.258301,2.5634768,-0.010172526666666666,0.32261437142857147,0.652357241306734,1.647949,-0.4272460999999999,2.0751951,0.06103514999999998,-0.012765066714285714,0.005520159463731452,-0.0078125,-0.02001953,0.01220703,-0.0018717445000000002,-0.8758370571428572,0.0015875760326748989,-0.8725586,-0.8774413999999999,0.004882799999999965,-8.138333333333285e-05,-0.4521484571428571,0.0025214799879284913,-0.4472656,-0.4545898,0.007324200000000003,0.0,0.9857586760171427,0.002483456673626568,0.9881864475583243,0.9806531696638489,0.007533277894475443,9.955624622017452e-05,-118.76691428571428,0.05989636685062554,-118.6908,-118.8831,0.19230000000000302,0.01006666666666689,1.1425781142857143,0.22845673111162226,1.5271,0.9448242,0.5822757999999999,0.09063726666666665,-0.7996477428571429,0.15662283010200925,-0.4504395,-0.8843994,0.43395989999999995,0.07049559999999999,118.77537902230605,0.059417737940845906,118.89218892506078,118.70147823339505,0.1907106916657284,-0.009500724194095275,1
-0.18310551999999997,0.9393411761219596,0.9765625,-2.197266,3.1738285,0.008719308571428571,-0.267028825,0.9192618282451892,0.5493163999999999,-2.258301,2.8076174,-0.017438614285714284,0.2136230175,0.6368079533091986,1.647949,-0.4272460999999999,2.0751951,-0.008719308571428571,-0.01733398375,0.004280673656950796,-0.0078125,-0.02050781,0.012695310000000001,-0.0010463171428571427,-0.8757934625,0.002054053578336872,-0.8725586,-0.8784179999999999,0.005859399999999959,0.00041852857142857643,-0.45318604999999995,0.0051373134852483295,-0.4472656,-0.4628906,0.015625,-0.001185828571428571,0.9862703014889938,0.0026104508835243286,0.988680294680604,0.9806531696638489,0.008027125016755177,0.00019236823059714286,-118.83225,0.23104702675305921,-118.6139,-119.2731,0.6591999999999985,-0.0690571428571433,1.40075665,0.23318461539697924,1.620483,0.9448242,0.6756587999999999,0.06748739999999999,-0.5403900374999999,0.26273729597013784,-0.2636719,-0.8843994,0.6207274999999999,0.07298060000000002,118.84218959728008,0.23038468920109087,119.28210456743012,118.62526190164614,0.6568426657839836,0.06933644458261767,1
-0.37493027142857144,1.0142546637699212,0.6103516,-2.197266,2.8076176,-0.14241536666666665,0.08719308571428566,0.4739005932157306,0.5493163999999999,-0.793457,1.3427734,-0.02034505,-0.02615793142857144,0.09227648865270634,0.1220702999999999,-0.1831055,0.3051757999999999,0.020345049999999983,-0.015834262999999998,0.004881648368966129,-0.008300781,-0.02050781,0.012207029000000001,0.0016276033333333334,-0.8751395000000001,0.002548342701966628,-0.871582,-0.8784179999999999,0.006835999999999953,0.000895183333333327,-0.4551478857142857,0.006400173784470901,-0.4482422,-0.4628906,0.014648400000000006,-0.0022786333333333353,0.9865772933586748,0.002604281877678838,0.9888410899383759,0.9814279710837979,0.007413118854578071,0.00023408019662592613,-118.99685714285714,0.2907778926554477,-118.6139,-119.3665,0.752600000000001,-0.1245166666666672,1.397617714285714,0.20991389590950082,1.620483,1.098633,0.5218499999999999,-0.08697499999999998,-0.18676760714285714,0.2113976394895971,0.1208496,-0.3735351999999999,0.4943847999999999,0.07232666666666666,119.0055345123468,0.28887903727376013,119.37161690010113,118.62526190164614,0.74635499845499,0.12345589006382814,1
3.714285713123695e-08,0.6133957001794011,0.6103516,-1.220703,1.8310546,-0.020345050000000003,0.07847378571428569,0.4802220357037961,0.6103516,-0.793457,1.4038086,0.010172533333333345,0.06975445714285712,0.17769713051274838,0.3662109,-0.1831055,0.5493164,0.07120767666666666,-0.01283482157142857,0.004188171598347018,-0.008300781,-0.02001953,0.011718749,-0.000488281666666667,-0.8720703142857141,0.002183643364065795,-0.8696288999999999,-0.8764647999999999,0.006835900000000006,0.0011393166666666676,-0.4557059142857143,0.011119197305775359,-0.4335938,-0.4633789,0.02978510000000001,0.003987616666666656,0.9840911087957849,0.005819837067242514,0.9888410899383759,0.9719355887583656,0.01690550118001033,-0.0028175835300017216,-119.18362857142856,0.2680104830927698,-118.7128,-119.4049,0.6920999999999964,0.05126666666666561,1.1802455714285716,0.09302946019918838,1.356812,1.098633,0.25817899999999994,-0.01647949999999998,0.11143274999999998,0.14697728923883382,0.2471923999999999,-0.2032470999999999,0.45043949999999977,0.06500244999999998,119.18963444952949,0.26733601933005036,119.4103994837659,118.71961154940087,0.6907879343650336,-0.051449239708714366,1
0.213623065,0.2256375648332067,0.4882813,0.0,0.4882813,0.16276043333333332,0.1678467,0.3501773035000507,0.6103516,-0.2441405999999999,0.8544921999999999,0.14241536666666665,0.15258789,0.16148382939340727,0.3662109,0.0,0.3662109,0.06103513333333333,-0.013549805,0.004392268682594452,-0.01025391,-0.02001953,0.009765620000000001,-0.003255206666666667,-0.8708496249999998,0.0008457315428077737,-0.8696288999999999,-0.871582,0.001953100000000041,0.0004882999999999971,-0.45544434999999994,0.014579756778149634,-0.4335938,-0.4633789,0.02978510000000001,0.009440100000000007,0.9829172609737755,0.007331489181288672,0.9869508102604612,0.9719355887583656,0.015015221502095555,-0.00470135298243753,-119.21815000000001,0.3372669417538575,-118.7128,-119.4049,0.6920999999999964,0.22520000000000095,1.1631775,0.06380539364087229,1.257935,1.120605,0.13732999999999995,0.03845233333333331,0.19088744999999996,0.04119874888889221,0.2471923999999999,0.1483154,0.09887699999999991,0.01281739999999997,119.22399658032279,0.3366241110992652,119.4103994837659,118.71961154940087,0.6907879343650336,-0.22478261029864655,1
0.6306966666666668,3.1034042604606533,4.211426,-1.281738,5.493164,-2.624512,0.040690133333333385,0.3924011708622227,0.4882813,-0.2441405999999999,0.7324218999999998,-0.3662109499999999,-0.06103518000000002,0.3811644472280818,0.2441405999999999,-0.4882813,0.7324218999999998,-0.09155271999999995,-0.010904948666666666,0.003323663266358422,-0.008300781,-0.01464844,0.006347659,0.0024414075,-0.8759765666666667,0.000845702674308925,-0.8754883,-0.8769530999999999,0.0014647999999999328,0.0007323999999999664,-0.45296223333333324,0.0020328589383755884,-0.4506835999999999,-0.4545898,0.003906200000000082,0.001953100000000041,0.9862238957547648,0.0015835879276222247,0.9878831928209344,0.9847288145360074,0.0031543782849270396,-0.0015771891424635198,-118.70543333333335,0.17076604853814473,-118.5095,-118.8226,0.3130999999999915,0.019199999999997885,1.0656736666666666,0.04360046974899855,1.115112,1.032715,0.08239700000000005,-0.04119850000000003,0.4779052666666666,0.06591795000000629,0.5438232,0.4119873,0.13183589999999995,0.06591794999999998,118.7111961344926,0.17091135344186062,118.82854656633609,118.51510786298684,0.3134387033492487,-0.019306296090590536,1
0.2005440771428572,1.9076829416846046,4.211426,-1.281738,5.493164,-0.7120768600000001,-0.08719304285714281,0.8210361148167536,1.464844,-0.8544921999999999,2.3193362,-0.18310548333333332,-0.2964565057142857,0.5837597364265463,0.4882813,-1.098633,1.5869142999999999,-0.18310546666666663,-0.010323661,0.00358178598095117,-0.007324219,-0.01611328,0.008789061,0.0012207035,-0.8724888428571429,0.0034460800405954756,-0.8681641,-0.8769530999999999,0.008788999999999936,0.0012207000000000006,-0.46072824285714287,0.007765866175526759,-0.4506835999999999,-0.4692383,0.01855470000000009,-0.0011393333333333349,0.9867540116489503,0.0019507284325472095,0.9895371848512052,0.9844906484090186,0.0050465364421866665,-0.0005654240686526387,-119.23775714285716,0.5129044773221846,-118.5095,-119.729,1.2194999999999965,-0.12360000000000089,1.0468400571428573,0.06302041882931958,1.115112,0.9173584,0.19775360000000008,-0.03295893333333335,0.6034632999999999,0.17710461406651715,0.8789062999999999,0.4119873,0.4669189999999999,0.07781983333333332,119.24400454719239,0.5134040314424114,119.73636814315803,118.51510786298684,1.2212602801711938,0.12373380835718706,1
-0.19073488250000004,0.816554007734394,0.793457,-1.586914,2.380371,0.01743861428571427,0.03814698250000004,0.9181032214840312,1.464844,-0.8544921999999999,2.3193362,-0.14822827142857145,-0.24414063249999995,0.5697653099618617,0.4882813,-1.098633,1.5869142999999999,0.0,-0.007751464875,0.0037134831461885886,-0.004394531,-0.01611328,0.011718749,0.0016043524285714286,-0.8690185625,0.002316092063268579,-0.8657227,-0.871582,0.005859300000000012,0.0008370428571428588,-0.46618653749999994,0.003029711883490615,-0.4614258,-0.4692383,0.0078125,-0.00013951428571428487,0.9862071022464012,0.002022197301904043,0.9895371848512052,0.9838151689166923,0.005722015934512936,-0.0006873902964524836,-119.6782,0.16543563271384196,-119.5038,-119.9817,0.4779000000000053,-0.06434285714285741,0.8782196125,0.17414127456788345,1.082153,0.6976317999999999,0.3845212,-0.05022318571428571,0.8212280624999999,0.1811436491659663,1.027222,0.4833984,0.5438236000000001,0.07768908571428572,119.68447021954177,0.1656932985410356,119.98828812264067,119.50927334291691,0.47901477972375517,0.06445169707730056,1
-0.3138950428571429,0.848972814789372,0.793457,-1.586914,2.380371,-0.1525878833333333,0.17438613714285717,0.5890535925651041,1.220703,-0.6713867,1.8920897,-0.2034505,0.07847377714285712,0.30048949511880274,0.4882813,-0.3662109,0.8544921999999999,0.06103515,-0.005859375,0.001691455770541459,-0.00390625,-0.008300781,0.004394531,-0.0004882811666666667,-0.8666294714285714,0.0028808296320760787,-0.8637695,-0.871582,0.0078125,0.0006510333333333285,-0.4692382857142857,0.004995445313292418,-0.4628906,-0.4755859,0.01269530000000002,-0.001953116666666671,0.9855428489557533,0.001445152167716734,0.9877887651412673,0.9838151689166923,0.003973596224575049,0.0003606773247098645,-119.91655714285716,0.29192912300272994,-119.5038,-120.2069,0.7031000000000063,-0.10528333333333488,0.7525634714285713,0.04573972843119041,0.8239746,0.6976317999999999,0.1263428000000001,0.0009155166666666714,1.0013254571428571,0.08347173044629855,1.104126,0.8953857,0.2087403,0.02929688333333334,119.92312964726602,0.29277208085898726,120.21416768635089,119.50927334291691,0.7048943434339776,0.10552374086468319,1
-0.27901781999999997,0.5558971079988857,0.2441405999999999,-1.281738,1.5258786,0.23396804999999998,-0.06103515714285709,0.29900997156295,0.3662109,-0.4272460999999999,0.7934569999999999,-0.010172516666666668,0.13950892285714284,0.16038154435164598,0.3662109,0.0,0.3662109,-0.010172516666666668,-0.006556919571428572,0.0015659837725153112,-0.00390625,-0.008300781,0.004394531,-0.00024414066666666664,-0.8641183,0.000878656463016129,-0.8627929999999999,-0.8657227,0.002929700000000035,0.0001627500000000078,-0.4755859428571428,0.0028471451946684868,-0.4707031,-0.4790039,0.008300799999999997,-0.000651033333333347,0.9863739380581767,0.0013597875591214701,0.9881534881951791,0.9841459474829657,0.004007540712213431,0.00017358133088365055,-120.23437142857144,0.06577326494064653,-120.1355,-120.3223,0.18680000000000518,-0.031133333333334196,0.7776750857142857,0.023489757033185683,0.8239746,0.7470703,0.07690430000000004,-0.004577633333333331,1.0931397142857142,0.032497758716124224,1.153564,1.054688,0.09887599999999996,0.002746499999999985,120.2418611764649,0.0658157699790603,120.3293870592925,120.14262621233792,0.18676084695458428,0.031126807825764047,1
0.2593994075,1.2490389290272872,3.173828,-0.793457,3.967285,-0.10463169428571428,0.045776362500000015,1.02326554549905,2.075195,-1.281738,3.3569329999999997,0.14822822857142853,0.305175745,0.4816972950581584,1.281738,0.0,1.281738,0.0,-0.009399414875,0.0037437430885958215,-0.005371094,-0.015625,0.010253906,-0.00013950899999999995,-0.865234375,0.003501643328393914,-0.8598633,-0.8701171999999999,0.010253899999999927,-0.0009068142857142794,-0.4689941624999999,0.010064476370161345,-0.4511718999999999,-0.4790039,0.02783200000000008,0.001534599999999989,0.984257711787331,0.005102199013846164,0.9884396274476079,0.9747984839244855,0.013641143523122401,6.720449708221197e-05,-120.0462375,0.3155031172021669,-119.5203,-120.3223,0.8019999999999925,0.08397142857142878,0.7978820999999999,0.0569164730431985,0.8953857,0.7470703,0.1483154,0.018048957142857147,0.9997558875,0.13655788661124568,1.153564,0.8184813999999999,0.3350826000000001,-0.03688267142857143,120.05313030969928,0.31608220872990744,120.3293870592925,119.5265641567971,0.8028229024954072,-0.08414119929238748,1
0.228881825,1.2621781514704362,3.173828,-0.8544921999999999,4.0283202,-0.008719314285714302,0.1068115175,0.9969222365740164,2.075195,-1.281738,3.3569329999999997,0.17438612,0.2365111875,0.5152604890624283,1.281738,-0.1831055,1.4648435,-0.113351,-0.010253907125,0.0030991719658010237,-0.007324219,-0.015625,0.008300781,0.0009068085714285714,-0.8675537124999999,0.003298796522732601,-0.8598633,-0.8701171999999999,0.010253899999999927,-0.0010463142857142862,-0.4654541124999999,0.007069837645021617,-0.4511718999999999,-0.4711914,0.02001950000000008,-0.0013950857142857281,0.9846010173421833,0.005303908450799407,0.9884396274476079,0.9747984839244855,0.013641143523122401,0.0015716536900400552,-119.8299375,0.19851982943416557,-119.5203,-120.163,0.6426999999999907,0.046300000000000195,0.8329010125,0.04788265303147558,0.8953857,0.7525634999999999,0.1428222,0.010986328571428576,0.9228516625,0.08789078750007129,1.060181,0.8184813999999999,0.24169960000000013,-0.0054931428571428475,119.83642196072539,0.1986278543004042,120.17003330520588,119.5265641567971,0.6434691484087836,-0.04627248231455943,1
-0.09155274499999999,0.4659734106096927,0.7324219,-0.8544921999999999,1.5869141,0.2267020142857143,-0.045776357499999976,0.14498717297348573,0.1831055,-0.2441405999999999,0.4272460999999999,0.026157919999999984,-0.038146974999999986,0.07249359445509157,0.0,-0.1831055,0.1831055,0.008719314285714302,-0.00903320375,0.000904121885549849,-0.0078125,-0.01025391,0.0024414099999999998,0.0,-0.8680419875,0.0011301532253099583,-0.8662109,-0.8696288999999999,0.003417999999999921,0.00020925714285713326,-0.46936035,0.002116313252535444,-0.4648438,-0.4711914,0.006347600000000009,0.00048827142857143277,0.9868544589925055,0.0013763442636717325,0.9884598423960703,0.9848269037546094,0.00363293864146097,-0.00041532521359837523,-119.845725,0.06171734532759513,-119.7235,-119.8993,0.1757999999999953,0.00862857142857162,0.815734875,0.030087284264464862,0.8679199,0.7690429999999999,0.09887690000000005,-0.007847371428571424,0.9887695875,0.05716213055645041,1.043701,0.8843994,0.15930160000000004,0.014910014285714288,119.852595007965,0.061814259057453545,119.90646641902909,119.73034313552294,0.17612328350614348,-0.008566561695723911,1
0.09591239142857143,1.5500434827949066,3.112793,-1.708984,4.821777,-0.27465814,0.13950894285714285,0.2856599410589533,0.6103516,-0.2441405999999999,0.8544921999999999,0.05086263333333333,-0.026157928571428568,0.24377706773794858,0.3051758,-0.4882813,0.7934570999999999,0.05086263333333333,-0.009347099,0.0005219955039819149,-0.008789063,-0.01025391,0.001464847,0.0,-0.8680245571428572,0.001457086304761565,-0.8662109,-0.8706054999999999,0.004394599999999915,-0.0007324333333333192,-0.46658761428571427,0.0037911971237893425,-0.4604492,-0.4707031,0.010253899999999982,0.0007324166666666798,0.9855294621287634,0.0021748769765247,0.9884598423960703,0.9818929142470599,0.006566928149010387,0.00029726877275173164,-119.7282142857143,0.2049121797955681,-119.4049,-119.8993,0.49439999999999884,0.0823999999999998,0.7627650714285714,0.04512299308496404,0.8129883,0.703125,0.1098633,-0.01739501666666665,1.0421316285714286,0.049814824504515895,1.142578,0.9887695,0.15380850000000013,0.018310500000000007,119.73519550609934,0.20483894033159433,119.90646641902909,119.41243659377237,0.49402982525671746,-0.08233830420945291,1
0.04069009999999997,1.7248956810114517,3.112793,-1.708984,4.821777,0.366211,0.23396811666666664,0.2297279956230012,0.6103516,0.0,0.6103516,-0.024414059999999998,-6.6666666781918975e-09,0.2646421530042579,0.3051758,-0.4882813,0.7934570999999999,0.09765626,-0.008626302166666667,0.0005913381524533713,-0.0078125,-0.009277344,0.0014648439999999999,0.00019531259999999994,-0.8687337166666665,0.001251251936928206,-0.8671875,-0.8706054999999999,0.003417999999999921,-0.00039061999999998596,-0.4659830833333333,0.003765364034149508,-0.4604492,-0.4707031,0.010253899999999982,-9.765999999999941e-05,0.985860815107212,0.0023954499309812383,0.9880218264846733,0.9818929142470599,0.00612891223761336,0.0003887486414966279,-119.67315,0.19083644044049722,-119.4049,-119.8608,0.45589999999999975,0.02966000000000122,0.7351684499999999,0.025152847224817292,0.7580566,0.703125,0.05493159999999997,-0.002197260000000001,1.1553954833333335,0.11546982026608366,1.307373,0.9997559,0.30761709999999987,0.061523419999999975,119.68103344407189,0.1911955992931133,119.86944374874317,119.41243659377237,0.45700715497079614,-0.02907916404275852,1
-0.22125241249999997,0.6920254872053948,0.793457,-1.281738,2.075195,0.08719308571428573,0.07629395,0.5328417702199298,1.159668,-0.7324219,1.8920898999999998,0.03487722857142856,0.0305175825,0.09227648550300271,0.1831055,-0.1220702999999999,0.3051757999999999,-0.02615792285714284,-0.009216309499999999,0.0014633908069610112,-0.007324219,-0.01123047,0.0039062509999999995,-0.0004185271428571429,-0.8699951125,0.001966178311516673,-0.8671875,-0.8735352,0.006347699999999956,0.00020925714285713326,-0.46618653749999994,0.003912772484327081,-0.4609375,-0.4707031,0.009765599999999985,-0.00013949999999999876,0.9870779502435034,0.0015479156641956602,0.9902328515339005,0.9851616308976516,0.005071220636248874,-0.00011359978975509857,-119.6610125,0.17461694761064092,-119.4159,-119.8608,0.44490000000000407,-0.007842857142857642,0.7848358124999999,0.03353434226428771,0.8294678,0.7470703,0.08239750000000001,0.010986328571428576,1.3073730000000001,0.06669794534637907,1.417236,1.203003,0.2142329999999999,0.03060471428571427,119.67074853900178,0.17436994985061258,119.87204824875118,119.42625074796814,0.44579750078304414,0.008249297717485757,1
-0.5187988175,0.8934632259007186,0.6713867,-2.258301,2.9296876999999997,-0.41852681428571425,0.053405762499999995,0.5355192256784675,1.159668,-0.7324219,1.8920898999999998,0.05231584285714282,0.022888187499999997,0.09191532391915996,0.1831055,-0.1220702999999999,0.3051757999999999,-0.01743861428571427,-0.009399415125,0.0013244175439444462,-0.007324219,-0.01123047,0.0039062509999999995,0.0003487724285714285,-0.8692626999999999,0.0025804577600550727,-0.8662109,-0.8735352,0.00732429999999995,0.0006277999999999879,-0.46771241249999995,0.005533127559252932,-0.4609375,-0.4775391,0.016601599999999994,-0.002371657142857142,0.9871638420283593,0.001720536775477927,0.9902328515339005,0.9851616308976516,0.005071220636248874,0.0005715318981367774,-119.7502875,0.29482979805547077,-119.4159,-120.3223,0.906400000000005,-0.12242857142857133,0.8061218375,0.015743726239901553,0.8294678,0.7800292999999999,0.04943850000000005,0.004708428571428581,1.4089965,0.10209431148138048,1.587524,1.307373,0.28015100000000004,0.03923685714285712,119.76132601287323,0.2959686906884299,120.33551869550615,119.42625074796814,0.9092679475380123,0.12292266783964578,1
1.6217911942857144,2.563441989175169,4.699707,-2.258301,6.9580079999999995,0.34586580666666666,0.43596537142857145,0.6386160837390248,1.647949,-0.1220702999999999,1.7700193,0.2950032166666667,0.14822822857142862,0.38417762358504043,0.793457,-0.4272460999999999,1.2207031,-0.07120768333333331,-0.008719308142857143,0.002432087783099357,-0.005371094,-0.01220703,0.006835936000000001,0.0004882811666666667,-0.8711635000000001,0.007217258570029667,-0.8652344,-0.8823242,0.017089800000000044,-0.002522783333333334,-0.4641462142857143,0.015527698520968778,-0.4345702999999999,-0.4790039,0.04443360000000007,0.005696616666666682,0.9872537167599804,0.004837683405440179,0.9955532906584631,0.9802622572553076,0.015291033403155518,-0.00037520179352046323,-119.39314285714286,0.9166986270618853,-117.8723,-120.3223,2.450000000000003,0.3296000000000016,0.7690429714285714,0.07335654230956985,0.8184813999999999,0.637207,0.18127439999999995,-0.02746583333333334,1.4831541428571426,0.0776202411948253,1.587524,1.345825,0.2416989999999999,-0.019226166666666655,119.40486446457462,0.9178772961277677,120.33551869550615,117.88170504782103,2.4538136476851236,-0.32996416219708397,1
1.168387242857143,3.1450242548369927,4.699707,-3.417969,8.117676,-0.4679362166666667,0.1918247428571429,0.8805637245553836,1.647949,-0.8544921999999999,2.5024412,-0.040690099999999986,0.026157914285714328,0.5423288051697434,0.793457,-0.8544921999999999,1.6479491999999998,-0.06103515,-0.007603236714285714,0.0029815442128350604,-0.004882813,-0.01220703,0.007324217000000001,0.0005696616666666666,-0.8747209857142855,0.007274436691004245,-0.8652344,-0.8823242,0.017089800000000044,-0.0004882833333333392,-0.45166015714285707,0.018195713854811817,-0.4248047,-0.4790039,0.0541992,0.0034179666666666795,0.9846316101958293,0.005803144311383611,0.9955532906584631,0.978837287970609,0.016716002687854115,-0.0012019069493934091,-118.87599999999999,0.8309970597621466,-117.8723,-120.1849,2.3126000000000033,0.12266666666666737,0.6685965142857143,0.1379398380515751,0.8184813999999999,0.4669188999999999,0.3515625,-0.014648433333333322,1.4964947142857146,0.13436218895174618,1.697388,1.334839,0.3625489999999998,0.024719333333333315,118.88742236863145,0.8327358685316446,120.19766937787658,117.88170504782103,2.31596433005555,-0.12241264705835893,1
0.6539482142857144,4.9314890473578625,11.47461,-3.417969,14.892579,2.4820965,0.9068080142857143,1.8233850477637012,4.211426,-0.8544921999999999,5.0659182000000005,0.8036296000000002,0.034877165714285736,0.8759179388326543,1.342773,-1.159668,2.502441,-0.05086263333333333,-0.007952009857142856,0.00472325965807257,-0.003417969,-0.01757813,0.014160161000000001,-0.002034506,-0.873395657142857,0.006734693165704775,-0.8676758,-0.8828125,0.015136700000000003,-0.0001627666666666657,-0.4619838142857143,0.023660955255471572,-0.4248047,-0.5024413999999999,0.07763669999999995,-0.012939449999999991,0.9882893023760481,0.012520592366863975,1.01593024428083,0.978837287970609,0.037092956310221026,0.006182159385036838,-119.25031428571428,0.6280387738257648,-117.9218,-119.7729,1.8511000000000024,-0.2398666666666666,0.6230817571428571,0.11988266679627292,0.7525634999999999,0.4669188999999999,0.2856446,0.007324233333333337,1.370936842857143,0.4199530436713207,1.724854,0.5328369,1.1920171000000002,-0.1336670166666667,119.26050436399184,0.6287254597496006,119.78061459748808,117.93027907901812,1.8503355184699615,0.23883391000387397,1
9.2391966,20.17839650644342,46.08154,-19.47021,65.55175,1.246861042857143,2.8915410625,7.523784521264815,17.94434,-5.554199,23.498539,-0.8196149285714285,-0.7171632550000001,4.452967908103144,6.652832,-8.789063,15.441895,0.9416852628571428,0.010131836,0.03588950328076096,0.08105469,-0.02441406,0.10546875,0.0041155135714285715,-0.9133300875,0.06780759519658625,-0.8666992,-1.050293,0.18359379999999992,0.00034877142857141815,-0.3229370187499999,0.20288053859650682,-0.046875,-0.5024413999999999,0.4555663999999999,0.05294364142857141,0.9885716680991731,0.052963732910909216,1.05162193672426,0.872228711603126,0.1793932251211341,-0.016340242246532806,-110.47645250000001,11.450978029516893,-94.61975,-119.7729,25.15315000000001,2.578642857142857,-0.5905151375000001,1.6093751870548867,0.7525634999999999,-3.186035,3.9385985,-0.5626569285714286,-0.557556225,2.100780674446305,1.724854,-3.120117,4.844971,-0.6889998571428572,110.51013703305827,11.41817996692714,119.78061459748808,94.68051214977613,25.100102447711947,-2.5668674620688705,1
15.9149165,28.209262127537865,46.08154,-19.47021,65.55175,-12.613931333333332,3.768922,11.280929442024625,17.94434,-5.554199,23.498539,-7.832846333333333,-1.7089846,6.515437630383047,6.652832,-8.789063,15.441895,2.4007161333333333,0.029663087499999997,0.04417866091049114,0.08105469,-0.02441406,0.10546875,-0.00797526,-0.954711925,0.0781599844732744,-0.8666992,-1.050293,0.18359379999999992,0.019205733333333346,-0.16992188749999998,0.18244784552711044,-0.046875,-0.4414063,0.3945313,0.11507162999999998,0.9836401130810425,0.07908897503747099,1.05162193672426,0.872228711603126,0.1793932251211341,-0.05099231567208721,-101.37223,9.213945354801421,-94.61975,-114.3567,19.736950000000007,4.284666666666666,-1.842956575,1.360010123237295,-0.1757813,-3.186035,3.0102537,-1.0034178999999999,-2.352447675,1.1972946070535115,-0.5932617,-3.120117,2.5268553000000002,-0.8349611000000001,101.43047769482057,9.183511090270942,114.35837395398781,94.68051214977613,19.677861804211673,-4.252811940127789,1
3.295897333333334,11.757308629754062,16.8457,-4.211426,21.057126,0.7324220000000001,-19.999184166666666,16.65849676622945,-0.9765625,-31.98242,31.0058575,-15.50292875,-6.286623333333334,16.395980602057122,11.84082,-20.08057,31.921390000000002,-4.730225000000001,0.023762996666666664,0.1582440622169724,0.1552734,-0.1518555,0.30712890000000004,-0.109863295,-0.9832355666666666,0.1879191850452298,-0.871582,-1.200195,0.32861299999999993,-0.16430649999999997,-0.18212889666666665,0.09069551487172355,-0.08886719,-0.2700194999999999,0.18115230999999993,0.049316405,1.0128908743364562,0.1743281005363459,1.2130232925891182,0.8941017378250576,0.3189215547640606,0.1594607773820303,-104.97070000000001,0.8278429802806783,-104.3207,-105.9027,1.5819999999999936,0.6069999999999993,0.6939696333333334,3.1285692948854598,4.163818,-1.911621,6.075439,3.0377195,20.234986666666668,4.004576546182297,24.25232,16.243290000000002,8.00903,4.004515,106.98677029173946,0.6577108591525997,107.54178868425763,106.26031843519716,1.2814702490604617,0.19179246424702967,1
-2.267020671428571,13.263527352179269,16.8457,-23.62061,40.46631,-1.1800123333333332,-32.182965557142865,31.38245346909748,-0.5493163999999999,-84.53369,83.98437360000001,0.07120768333333334,-9.425572857142855,16.40369727006457,13.73291,-30.51758,44.25049,4.058838333333333,0.013323087142857142,0.114783037188266,0.1552734,-0.1518555,0.30712890000000004,0.011555985,-1.0007672571428572,0.15725323822021237,-0.871582,-1.246582,0.3750000000000001,-0.01806641666666668,-0.23039899857142854,0.10298740528041611,-0.08886719,-0.4257813,0.33691411,-0.03971354999999999,1.0376058512520938,0.15179680414538188,1.269151157527617,0.8941017378250576,0.37504941970255945,0.030525460276522642,-104.0468,1.4135908059501014,-101.7938,-105.9027,4.108899999999991,0.5309999999999988,1.3277762000000002,2.6517111801610223,5.317383,-1.911621,7.229004000000001,0.5960083333333334,44.25449857142858,25.429880342843028,77.59094,16.243290000000002,61.34765,10.224608333333334,115.17390807821224,9.83844164614401,128.73944520957684,106.26031843519716,22.47912677437968,3.5968735756355463,1
-5.868094957142858,10.529843877382204,9.82666,-23.62061,33.44727,-1.8717448333333335,-24.03041450857143,38.61412676191803,26.67236,-84.53369,111.20605,18.534341666666666,-10.820661285714285,16.849304707827407,13.73291,-30.51758,44.25049,1.3122551666666669,0.013392859999999998,0.16508091059034,0.3232422,-0.1342773,0.45751949999999997,0.06998698166666666,-0.9761439857142856,0.12224316269446225,-0.8911133,-1.246582,0.3554687000000001,8.138333333333285e-05,-0.21386720428571424,0.10455302875157402,-0.08789063,-0.4257813,0.33789066999999995,0.0024413999999999825,1.015394245669391,0.12450548679839973,1.269151157527617,0.9162652056054383,0.35288595192217875,0.007522914067179569,-103.84747142857144,1.566734601769218,-101.7938,-106.5399,4.746099999999998,-0.7910166666666664,1.6981725142857143,1.8971188018046476,5.317383,-0.9887695,6.3061525000000005,-0.7571411500000002,72.32927571428571,17.47202692053964,90.60974,39.72656,50.88318,8.48053,127.2769110818024,10.025007484670441,139.8623436849526,109.40041978823614,30.46192389671647,5.0769873161194115,1
0.49700071428571463,11.687951231178396,17.57813,-13.85498,31.43311,3.4993498333333335,-11.622839022857145,21.21741751719408,26.67236,-32.04346,58.71582000000001,4.750570333333333,-6.295339857142857,21.651325893019273,23.86475,-35.03418,58.89893,-3.8146966666666664,-0.10079520485714287,0.2443002312834581,0.3232422,-0.503418,0.8266602000000001,0.0069173099999999986,-0.9279436285714286,0.12626983448903803,-0.7802734,-1.168457,0.3881836000000001,0.018473316666666684,-0.15408761428571424,0.13196062305691572,0.06689453,-0.3520508,0.41894533,-0.044026695000000005,0.9778572783194727,0.147015867377443,1.2740472211487772,0.8074720462290258,0.4665751749197514,-0.00774195019824353,-104.44778571428571,1.1642901777886991,-103.255,-106.5399,3.2849000000000075,-0.22521666666666582,1.9265311571428572,0.6619944045460703,2.845459,0.7745361,2.0709229000000002,0.052185,87.94948142857143,4.8432381703547245,94.88342,79.28284,15.600580000000008,2.600096666666668,136.59494257791246,3.683192577206153,141.59525459580263,130.57007276697328,11.025181828829346,1.837530304804891,1
4.714966875000001,17.980032903219993,22.2168,-29.41895,51.63575,-0.7934568571428571,-7.682800375000001,17.742643251583893,19.9585,-32.04346,52.001960000000004,1.2119828571428573,-0.45013375,21.331862962703696,23.86475,-35.03418,58.89893,-1.586914285714286,-0.06182862550000002,0.22010508280035482,0.2128905999999999,-0.503418,0.7163086,-0.014160157999999997,-0.9414062,0.16501856045265245,-0.7802734,-1.174316,0.3940425999999999,0.023995528571428584,-0.22943115874999997,0.18845693776511815,0.06689453,-0.5668945,0.63378903,0.02057755714285714,1.004141936845249,0.19033881367976688,1.2740472211487772,0.8074720462290258,0.4665751749197514,-0.026620102264531882,-104.711375,0.7874760019019171,-103.3044,-106.1224,2.817999999999998,-0.1467571428571424,1.7420196250000002,1.2675270922473907,2.845459,-1.170044,4.015503,-0.0054931428571428475,92.36480750000001,4.16848242104537,98.2782,86.39099,11.887209999999996,1.0813685714285717,139.66645935056783,3.242062693630526,144.64908232161753,134.68104396653786,9.96803835507967,0.8196215808843265,1
-1.8081658749999994,19.38835754121742,22.2168,-29.84619,52.06299,-3.6446711428571428,-0.7171617500000003,18.81944857400147,23.49854,-29.23584,52.73438,-5.868094285714286,3.9978037499999997,18.015195341860665,32.16553,-24.41406,56.579589999999996,4.856654285714286,0.018859861249999978,0.1804193677586403,0.2446288999999999,-0.2661133,0.5107421999999999,-0.04094587142857142,-1.0031738,0.16463504404261656,-0.7944336,-1.267578,0.47314440000000013,0.03808588571428569,-0.29223633749999994,0.1873493389887225,-0.1079102,-0.5991211,0.49121089999999995,0.011021214285714271,1.0669844252016074,0.20443888059945994,1.4270656491507672,0.8085097253180322,0.6185559238327349,-0.038915035146871814,-104.98605,0.9053575663002668,-103.4912,-106.1224,2.6311999999999927,0.08004285714285686,0.8102416875,1.4099114224412788,2.719116,-1.170044,3.8891600000000004,-0.21109447142857143,94.68635625,2.0499036172250866,98.2782,91.6864,6.591799999999992,-0.9416857142857131,141.39241635664246,1.7075519270441821,144.64908232161753,139.53187568556012,5.117206636057404,-0.6897884602588249,1
-11.83210157142857,14.366421091529578,2.380371,-33.56934,35.94971099999999,-0.6205249999999994,2.5286005714285715,23.742750424100855,39.30664,-29.23584,68.54248,4.567464166666666,-1.0899121428571428,19.596481538445282,32.16553,-29.60205,61.767579999999995,3.011067166666667,0.023158479999999974,0.20085396318898494,0.2446288999999999,-0.2661133,0.5107421999999999,0.08325194999999998,-0.9861188714285714,0.15136871992844403,-0.7832030999999999,-1.267578,0.48437490000000016,0.04964190000000002,-0.3095703142857142,0.20307901542538748,-0.1547851999999999,-0.6035155999999999,0.44873040000000003,-0.0007324166666666613,1.0604508039862,0.19861505969000723,1.4270656491507672,0.8149368520899578,0.6121287970608094,-0.043545280514300434,-105.21528571428571,0.9538564277510023,-103.4912,-106.2817,2.7904999999999944,0.1126166666666677,0.3860909,1.2652721462926582,2.455444,-0.8074950999999999,3.2629390999999996,0.5438231833333332,94.21011857142857,1.9910521874913973,96.90491,91.6864,5.218509999999995,-0.5227666666666669,141.24334117993976,1.457352671500353,142.6263440937794,139.53187568556012,3.094468408219285,-0.4269771137907365,1
-7.664272914285713,19.638463805624117,28.62549,-33.56934,62.194829999999996,6.937663333333333,1.7264229999999994,31.336835368129975,39.30664,-48.0957,87.40234000000001,1.00708,-4.577635571428571,19.187671222614558,23.86475,-29.60205,53.4668,8.911133333333334,0.03180803857142857,0.17412672380037877,0.2475586,-0.1376953,0.3852539,0.004720045000000002,-0.9192242571428572,0.21854482248032372,-0.7158203,-1.370605,0.6547847000000001,0.036946616666666675,-0.34291294285714274,0.21954793347118115,-0.1547851999999999,-0.6845703,0.5297851,-0.017659499999999984,1.0054159575935717,0.26667416967292856,1.535749056180462,0.8066372090874253,0.7291118470930368,-0.028539688250720802,-106.14441428571429,1.6238934329039474,-104.3866,-109.3634,4.976799999999997,0.09796666666666691,0.04080628571428576,1.3452528190210238,2.455444,-1.494141,3.949585,0.0201416,94.12615142857143,2.589366320868414,97.41028,91.07117,6.339110000000005,-0.6793216666666666,141.88363148619788,2.406597030633715,145.70900051014002,138.9107583956659,6.798242114474107,-0.5260918195883401,1
-11.78741505,30.526844995711627,28.62549,-77.63672,106.26221,1.7613007857142857,4.19616775,30.75074252740718,36.62109,-48.0957,84.71679,8.867535714285713,-3.7765496375,17.885442151309604,23.86475,-30.63965,54.504400000000004,-0.9940011571428572,-0.03631591874999998,0.13793231239794035,0.2475586,-0.1987305,0.4462891,0.028180801428571427,-0.9329833750000001,0.28523789766667584,-0.6787109,-1.370605,0.6918941000000001,0.013253342857142858,-0.34069823749999995,0.23500089125675938,-0.1660155999999999,-0.7285155999999999,0.5625,-0.0005580428571428574,1.0167248108049975,0.32121687747045863,1.535749056180462,0.7165868116782963,0.8191622445021658,-0.014104135641865872,-106.5728625,1.5723724276551005,-104.3866,-109.3634,4.976799999999997,0.04552857142857038,-0.03776548750000003,1.2739827492595477,2.329102,-1.494141,3.8232429999999997,-0.2927072142857143,93.31169125,2.348134756849955,97.41028,91.07117,6.339110000000005,0.14674571428571426,141.66323038177148,2.338574133044093,145.70900051014002,138.9107583956659,6.798242114474107,0.06059911359197047,1
-19.767761625,31.441112547407087,9.887695,-77.63672,87.524415,1.3078962857142855,8.605958,25.01658641599867,36.62109,-39.0625,75.68359000000001,-0.2702985714285714,-2.4642946375,11.96226550944898,8.728026999999999,-30.63965,39.367677,4.211426,-0.08483886749999998,0.10412279941453534,0.05957031,-0.2021483999999999,0.2617187099999999,0.00920759,-0.9813842875000001,0.32249069463151264,-0.6787109,-1.575195,0.8964840999999999,0.08105474285714287,-0.28466797749999995,0.26295695464133734,0.03955078,-0.7285155999999999,0.7680663799999999,0.009207585714285729,1.0573198668913357,0.32848214471668696,1.588605529338913,0.7165868116782963,0.8720187176606167,-0.0813726008513415,-106.9450125,0.8737736523469408,-105.271,-108.1219,2.8508999999999958,-0.32174285714285744,0.47859194999999993,1.5982814091839788,3.317871,-1.032715,4.350586,-0.11771065714285713,92.11349375,2.603167930689383,95.09216,87.2699,7.82226,0.4480842857142875,141.16631984973927,1.9311812918608744,143.39732545525487,138.26182587971505,5.135499575539825,0.5373177069825366,1
-10.92529335714286,24.160108079684363,11.71875,-59.26514,70.98389,-4.8421225,-3.243582285714286,24.988323971039964,27.64893,-39.0625,66.71143000000001,-2.3193354999999998,4.490445142857143,18.169004422325756,37.10938,-22.88818,59.99756,-4.252115333333333,-0.08656528857142856,0.1164328884049775,0.08105469,-0.2021483999999999,0.2832030899999999,0.028889968333333318,-0.9972795,0.2659767766518661,-0.7895508,-1.575195,0.7856441999999999,0.09830723333333331,-0.22914343142857138,0.2117168529146359,0.03955078,-0.6469727,0.68652348,-0.05647786333333333,1.0516116379822982,0.2631549326602082,1.588605529338913,0.8039704885192704,0.7846350408196425,-0.0930654868811518,-106.76277142857143,1.0540982429139554,-104.8425,-107.5232,2.6807000000000016,0.24718333333333456,0.7831682428571428,1.5099402791656285,3.317871,-0.5932617,3.9111326999999996,-0.6106567166666667,92.28515571428572,3.112819169674851,95.82825,87.2699,8.55834999999999,1.426391666666665,141.14943236874896,2.0214299882458926,143.39732545525487,138.26182587971505,5.135499575539825,0.7358588244439327,1
-7.7165875,16.99555478200957,11.71875,-39.79492,51.51367,-1.4444986666666668,0.41852649999999997,19.32828374934594,28.44238,-35.15625,63.59863,1.4444988333333333,-1.0724729999999991,23.386179846863325,37.10938,-26.55029,63.659670000000006,-10.609945000000002,-0.006556927142857147,0.15536677392671594,0.2436523,-0.1987305,0.44238279999999996,-0.04036458166666667,-0.8966935428571429,0.13387736910118975,-0.6987304999999999,-1.045898,0.3471675000000001,0.009765583333333347,-0.25711495714285715,0.1879801987930897,-0.1259766,-0.6577147999999999,0.5317381999999999,0.0020345166666666664,0.9524859125545546,0.1849586313591233,1.2593084720743881,0.7135174600711732,0.5457910120032149,-0.008282852716019232,-106.68117142857145,1.1118433668376813,-104.8425,-108.1934,3.3508999999999958,-0.324099999999999,0.6026785714285714,1.366288462485088,2.543335,-1.137085,3.68042,-0.5639648333333332,94.2956557142857,1.9627827880576174,96.59729,91.40625,5.191040000000001,0.5145266666666662,142.3957837281575,1.641233768357364,144.16418298258506,139.466136665823,4.69804631676206,0.5812890919842033,1
-7.3165889,19.367442952833304,13.79395,-39.79492,53.58887,1.0288784,-4.3334973125000005,17.681243683015957,28.44238,-29.41895,57.861329999999995,-8.265904285714285,-3.0288688750000006,27.464015618440932,31.37207,-51.75781,83.12988,2.9907229999999996,-0.025756836124999995,0.13764624703124492,0.2436523,-0.1762695,0.4199218,-0.024135045714285715,-0.928527775,0.3362570781791717,-0.6621094,-1.699707,1.0375976000000002,0.011230471428571429,-0.25036619874999994,0.1953872392933545,-0.01855469,-0.6577147999999999,0.63916011,-0.009765628571428557,0.9805867529137696,0.3591699106280261,1.7457022705170002,0.6956349397765086,1.0500673307404917,-0.008791102448763037,-107.6008,0.9425709007056934,-106.7157,-109.303,2.587299999999999,-0.2118857142857138,0.9915159875,1.2786351038486818,2.543335,-1.137085,3.68042,0.32880507142857146,93.50807125,2.7097703882719197,96.59729,89.12109,7.476200000000006,-0.5595185714285711,142.5756567693207,1.9970487012025109,145.10511665323816,139.0489452580687,6.056171395169457,-0.2087760136794543,1
9.826660475,33.198476738319066,78.36914,-34.17969,112.54883000000001,0.12207028571428578,-14.6102925,25.20136317947716,24.53613,-49.56055,74.09667999999999,-4.0108814285714285,5.2261359999999994,25.037189942134372,31.37207,-51.75781,83.12988,-2.5373184285714285,0.057128912625,0.3444636515384986,0.8989258,-0.1762695,1.0751953,0.020019527142857145,-0.9622803,0.38203409126451754,-0.6176758,-1.699707,1.0820312,0.15457588571428574,-0.18768311124999998,0.23655139376892195,0.3198242,-0.4038085999999999,0.7236327999999999,0.017787385714285703,1.0482496195786575,0.4086722231664756,1.7457022705170002,0.6609454693571521,1.084756801159848,-0.15496525730854974,-107.9612875,1.0697956526331818,-106.6992,-109.303,2.6037999999999926,0.058857142857141706,1.47354115,1.318231029282056,3.411255,-0.4888916,3.9001466000000002,0.0792585714285714,93.4613775,3.5496560945040847,99.51965,89.12109,10.398560000000003,0.18519857142857177,142.83158999009817,2.5125694711227458,145.90718684876893,139.0489452580687,6.858241590700231,0.07945943420074286,1
18.94378675,28.170408289696887,78.36914,-18.12744,96.49658,-9.722028571428572,2.784728750000001,33.29236113957479,44.86084,-49.56055,94.42139,5.196708571428571,6.9427488125,10.07530387293741,23.13232,-4.821777,27.954097,-1.3427734285714286,0.13342285324999997,0.3766118501895605,0.8989258,-0.2387695,1.1376953,-0.1297433062857143,-0.849121075,0.3312496789951081,-0.53125,-1.371094,0.839844,0.046875,-0.11297609249999999,0.25778739551949587,0.3198242,-0.4038085999999999,0.7236327999999999,-0.09486607142857142,0.9601666821276537,0.3511887201411365,1.431932106532488,0.6088555666043556,0.8230765399281323,-0.0897935464579132,-108.2311125,1.184335412719482,-106.6992,-109.4897,2.7904999999999944,-0.39864285714285635,1.1549377075,1.6307885508329492,3.411255,-0.7690429999999999,4.1802980000000005,0.2212960142857143,96.14066625000001,3.854491762976715,102.2717,91.17004,11.101659999999995,-0.15930142857142876,144.81140920943403,2.279195029209911,147.95659774266596,141.82378768722455,6.132810055441411,0.18786342018133187,1
12.015206285714285,12.613838681689975,30.39551,-4.089355,34.484865,-4.3945316666666665,7.27190342857143,23.101717376526558,44.86084,-17.76123,62.62207000000001,-5.950928333333333,13.357979357142856,16.132282508320444,35.03418,-4.821777,39.855957,-3.0415845000000004,0.008998328714285722,0.24025053729975937,0.5092772999999999,-0.2387695,0.7480467999999999,-0.10603839999999998,-0.8525389571428572,0.3237652801655229,-0.53125,-1.302734,0.7714840000000001,-0.05444336666666666,-0.15150670571428568,0.1894312536634409,0.1357422,-0.3598633,0.49560550000000003,-0.04923503333333334,0.9182467514532726,0.2992592699434238,1.3561417244343787,0.6088555666043556,0.7472861578300232,0.022247676136835055,-107.8967142857143,1.704636056395,-104.837,-109.4897,4.652699999999996,-0.0357166666666681,0.4967389085714286,1.2939281161276484,2.686157,-0.8569336,3.5430906,-0.13366699333333334,95.21850285714285,5.093998695748796,102.2717,88.35205,13.91964999999999,-2.319941666666665,143.947552952061,4.0096562874355905,147.95659774266596,138.41345881722808,9.543138925437887,-1.5147541730426564,1
8.036295,14.549726924649653,24.16992,-4.089355,28.259275000000002,4.0588375,-6.998698666666667,14.337720404773743,9.277344,-17.76123,27.038574,2.624510000000001,23.763021,16.45294663595166,35.03418,4.882813,30.151367,-15.0756835,-0.08024087499999998,0.06822029589329974,-0.001953125,-0.1269530999999999,0.1249999749999999,-0.007568349999999953,-0.9573566666666666,0.30794244047577035,-0.7114258,-1.302734,0.5913082000000001,0.22241190000000005,-0.26220703333333334,0.10018692825545322,-0.159668,-0.3598633,0.2001953,0.10009765,0.9992942178585383,0.314993564354831,1.3561417244343787,0.7599127876716811,0.5962289367626976,-0.23715679148241176,-107.01233333333333,2.117488742197542,-104.837,-109.0668,4.229799999999997,0.9667999999999992,-0.032958999999999995,0.7149348190401416,0.4229736,-0.8569336,1.2799072,-0.6399536,92.64038333333333,5.766225915053389,99.19556,88.35205,10.843509999999995,-5.421754999999997,141.5703974507394,5.079359601599552,147.42966083058013,138.41345881722808,9.016202013352057,-4.280794063085054,1
8.45336925,15.504891845869642,29.35791,-7.873535,37.231445,1.2613933333333336,1.7852799999999984,29.63931198916061,36.13281,-26.79443,62.92724,-14.444986666666665,1.9683854999999988,26.910221946562007,33.38623,-30.70068,64.08690999999999,13.65153,-0.0679931675,0.18665864657943412,0.1416016,-0.3110352,0.4526368,-0.07926433666666667,-0.854736375,0.15589234287724285,-0.6831054999999999,-1.032715,0.34960950000000013,0.0348307666666667,-0.2027588,0.07227482631631385,-0.1230469,-0.2758789,0.15283199999999997,0.05094399999999999,0.8976006669682811,0.15873314202403568,1.0714354189993003,0.7281729325818657,0.3432624864174346,-0.028261368229042166,-107.84592500000001,1.1438362568567269,-106.2708,-108.7976,2.5268000000000086,-0.27649999999999864,0.34469605,1.0768691339775833,1.708374,-0.7415771,2.4499511,-0.16662596666666665,93.118745,1.6670530523951528,95.07568,91.6864,3.3892799999999994,-0.7177733333333313,142.4910412927084,1.7132744331624896,144.48781955328514,140.36665351615346,4.1211660371316725,-0.2571808307236931,1
12.191773000000001,34.35547088067365,81.4209,-35.52246,116.94336000000001,-5.684988714285715,0.7476807499999998,32.252341743549614,51.63574,-34.5459,86.18164,-1.1683877142857144,-1.0528555000000006,20.48903448191449,33.38623,-30.70068,64.08690999999999,5.528040714285714,0.06457518624999997,0.2194242090134888,0.3725585999999999,-0.3110352,0.6835937999999999,0.06368582714285713,-0.90881345,0.25250450156641907,-0.6289062999999999,-1.370117,0.7412107000000001,-0.01150942857142856,-0.24884033,0.24207776025337172,0.09472656,-0.7568359,0.85156246,-0.06870814285714286,0.9846253083755134,0.28633668242647425,1.4065681731211053,0.7097354520601415,0.6968327210609637,0.046477833416041614,-108.6019125,1.281116359650554,-106.2708,-110.6104,4.339600000000004,-0.19382857142857038,0.5774688875,1.2489998456548073,2.565308,-0.7415771,3.3068850999999997,0.4010010285714286,95.89760000000001,4.620122129987473,104.079,91.6864,12.392599999999987,-0.3146799999999997,144.91421341053268,3.7656714139345913,151.87942524085682,140.36665351615346,11.512771724703356,-0.05415902556005595,1
4.57763675,38.063294940862825,81.4209,-35.52246,116.94336000000001,-8.265904285714285,-0.7476808750000004,32.326641847731985,51.63574,-34.5459,86.18164,3.0953545714285715,-6.4163203499999995,15.950037549837191,7.995605,-36.25488,44.250485,3.1302314285714283,0.09985351249999998,0.17695963681746868,0.3725585999999999,-0.1357422,0.5083007999999999,0.020507820000000003,-0.9642944375,0.23805601740423524,-0.6289062999999999,-1.370117,0.7412107000000001,-0.05998881428571431,-0.30834959249999994,0.2729233131558741,0.09472656,-0.7568359,0.85156246,-0.04443358571428572,1.0535939623129371,0.2767508851037007,1.4065681731211053,0.7097354520601415,0.6968327210609637,0.07507145524997408,-108.5051,1.183676232276861,-106.9904,-110.6104,3.6200000000000045,0.07375714285714301,0.30899053750000005,1.5637121768202,2.565308,-1.323853,3.8891609999999996,0.08318228571428572,96.39404375000001,5.1897165492977875,104.079,88.76953,15.30946999999999,-1.60871,145.18651564650784,3.865090461369997,151.87942524085682,139.57636898234477,12.303056258512044,-1.112873115869186,1
8.17871,46.4373774016566,106.2622,-34.91211,141.17431,-6.00179,-6.164550428571429,35.14264909662931,38.81836,-54.56543,93.38379,12.176513333333332,-3.5661964999999993,15.53313091083817,13.3667,-36.25488,49.62158,-1.1698405,0.0772879557142857,0.22058765160915142,0.5166016,-0.1357422,0.6523438,0.029378255000000002,-0.9384068571428571,0.23155578543149427,-0.684082,-1.324707,0.6406250000000001,0.054687566666666666,-0.17968749999999997,0.29440226650644175,0.3642577999999999,-0.6396484,1.0039061999999999,0.01326496666666665,1.006081594467782,0.28295349851306717,1.4677907186763377,0.7134352004683655,0.7543555182079722,-0.05575834724371587,-108.19179999999999,0.7883094739166022,-106.9904,-108.9624,1.9720000000000084,-0.0705000000000003,0.04865384857142857,1.357728520119994,2.197266,-1.323853,3.5211189999999997,0.22979744,94.77434428571429,3.972196480848083,99.14063,88.76953,10.371099999999998,0.6555183333333332,143.86623625918338,2.598451383267735,147.27481054030477,139.57636898234477,7.698441557959995,0.4803557878926057,1
10.881696142857143,44.16282596459988,106.2622,-21.11816,127.38036000000001,1.7700194999999999,-4.394531428571428,37.24715034414464,38.81836,-54.56543,93.38379,8.636474999999999,7.524763171428572,10.125750239118586,20.32471,-2.624512,22.949222,-1.8005371666666665,0.04645648000000001,0.22403925337419608,0.5166016,-0.1791992,0.6958008,0.017008465,-0.948590957142857,0.39396979523593706,-0.5673828,-1.503906,0.9365232,0.011800116666666674,-0.12820872857142854,0.2220505862579344,0.3642577999999999,-0.2929688,0.6572265999999999,0.0008951833333333178,0.9952036510321337,0.4131595240217099,1.5227837188592053,0.6076583153385415,0.9151254035206637,-0.012286571567659018,-109.02989999999998,0.7374265070726259,-108.089,-110.0446,1.955600000000004,0.0970500000000006,0.6889997771428573,1.4795448657305035,3.158569,-1.312866,4.471435,-0.4843140000000001,95.86984285714286,3.2045892574541393,100.6293,91.89514,8.734160000000003,0.5795283333333311,145.20985591865585,2.2301628007771916,149.1189762240254,142.81083665743972,6.30813956658568,0.3053332998308491,1
0.49591074999999996,14.045755460088602,20.99609,-21.11816,42.11425,2.0490372857142853,-3.9138795,25.403289668825646,30.33447,-39.00146,69.33593,-3.1127925714285714,3.3340451124999992,25.310914224852016,32.53174,-37.65869,70.19042999999999,1.7438614285714285,-0.07757568499999999,0.09137718378155894,0.02197266,-0.2246094,0.24658206,0.02769252,-0.962524425,0.3760358136247616,-0.5673828,-1.503906,0.9365232,-0.011090857142857149,-0.20385742999999995,0.08470518628638289,-0.07275391,-0.2929688,0.22021488999999997,0.005440857142857152,0.9941795722067116,0.37484902194650305,1.5227837188592053,0.6076583153385415,0.9151254035206637,0.007947540481147795,-108.812725,0.871577508642479,-108.0011,-110.0446,2.0435000000000088,0.07141428571428524,0.8686065875,1.3082709150506004,3.158569,-1.312866,4.471435,-0.32331190000000004,96.050725,3.1429292309063728,100.6293,91.89514,8.734160000000003,0.9338385714285725,145.1657009574622,2.2501324757398167,149.1189762240254,142.22383752439822,6.895138699627182,0.553269359264131,1
7.072448250000001,16.660421833121074,23.25439,-21.91162,45.16601,-5.2839,-11.528015675,13.536383869578582,8.544922,-30.63965,39.184572,1.7089843714285713,5.8288568750000005,31.275823377735506,46.75293,-37.65869,84.41162,10.96889,-0.08416748374999998,0.10062654566999203,0.02832031,-0.2290038999999999,0.2573242099999999,-0.0006277857142857017,-0.9526367,0.33073930140354607,-0.5952147999999999,-1.405762,0.8105472,-0.10386444285714284,-0.2518310549999999,0.11560081755310925,-0.07275391,-0.3964843999999999,0.32373048999999987,-0.03494698428571427,1.0029532526511118,0.3178005123547545,1.4592263116443076,0.6638429428103584,0.7953833688339492,0.10580325785655018,-108.7461125,0.6994422378632447,-108.0011,-110.0226,2.021500000000003,-0.21345714285714174,0.4998779,1.078148523919369,1.428223,-1.774292,3.202515,-0.03531318571428572,95.00564625000001,3.4240932058781732,98.74512,89.82971,8.915409999999994,0.947178571428572,144.42492662455004,2.4341108958264153,147.70374659655906,141.20247552768106,6.5012710688779975,0.7828441531658338,1
6.077356100000003,24.6233008180578,30.70068,-31.67725,62.37793,-9.155273333333334,-11.535645057142858,17.707560452140086,10.19287,-39.18457,49.37744,2.1667473333333334,10.375976285714287,23.54783841423847,46.75293,-18.49365,65.24658,-7.527668333333334,-0.04178292428571427,0.09274595730492241,0.0546875,-0.2290038999999999,0.2836913999999999,0.0043945316666666664,-0.9418247571428572,0.29717838360651255,-0.5952147999999999,-1.405762,0.8105472,-0.06494141666666665,-0.3053152857142857,0.1037953626083142,-0.1787108999999999,-0.4575194999999999,0.2788086,-0.019368483333333335,1.001800195601256,0.2871979669909194,1.4592263116443076,0.6984840702538001,0.7607422413905075,0.0673241691255952,-108.15727142857142,1.2315750561973982,-106.3367,-110.0226,3.6859000000000037,0.1245166666666672,0.00706257142857141,1.0140639663246476,1.252441,-1.774292,3.026733,-0.14648438333333333,92.57550857142859,3.847549454728419,98.54187,88.40698,10.134889999999999,0.4824833333333321,142.38691742082656,3.2504889316644046,147.70374659655906,138.46984646725357,9.233900129305482,0.2218866556117073,1
-13.131278185714288,26.37941422296643,30.70068,-42.90771,73.60839,-11.708576666666668,0.47084157142857147,27.044948471490592,35.09521,-39.18457,74.27978,-0.5798338333333333,1.3863697142857145,11.896151163003488,19.34814,-16.72363,36.07177,-4.018147,0.03055246285714286,0.1022724463894984,0.2226563,-0.07519531,0.29785161,0.008951823333333333,-0.9303850857142857,0.24258869239552663,-0.671875,-1.265625,0.59375,-0.07397466666666667,-0.3601422857142857,0.24022161865450015,-0.1567383,-0.7792969,0.6225586,-0.05965168333333334,1.0101570760109688,0.3143610390884938,1.502892586615657,0.6940307426239528,0.8088618439917042,0.09088867983648875,-107.92577142857144,1.0435246295037586,-106.3367,-109.3689,3.032200000000003,-0.4092333333333353,0.31860347142857137,1.4257132610742884,2.774048,-1.175537,3.949585,-0.22064206666666666,92.36206,3.514144959721118,97.64099,88.40698,9.234009999999998,1.4913933333333347,142.07539428745832,2.788897196517094,146.18777595212424,138.46984646725357,7.717929484870666,1.2863215808117776,1
-10.87188675,20.99587535466798,13.85498,-42.90771,56.76269,0.9765625714285714,7.125853375,24.344593122107355,35.09521,-32.10449,67.1997,-8.911131428571428,-0.4730227500000001,18.930563545524908,33.99658,-30.94482,64.9414,2.092634,0.02185059375,0.12984235874319947,0.2226563,-0.2128905999999999,0.4355468999999999,-0.01171875,-0.945495575,0.22413180906994218,-0.6733397999999999,-1.265625,0.5922852000000001,-0.014020657142857147,-0.30987548249999997,0.24640190900019454,0.01464844,-0.7792969,0.7939453399999999,-0.009277342857142842,1.0156933654378693,0.28417527535323434,1.502892586615657,0.6940307426239528,0.8088618439917042,0.015563648053191928,-109.07775,0.7492691505727452,-107.7319,-110.1654,2.4335000000000093,-0.2511142857142862,0.8411407,1.2423347216936123,2.774048,-1.175537,3.949585,0.24640761428571428,93.15033,3.358882028464658,98.08594,88.6377,9.448239999999998,-0.055717142857143846,143.46964082024064,2.0901762123592764,147.00579069227214,141.39767195672096,5.608118735551187,0.15623499746784628,1
-3.6926267500000005,16.9430719052556,20.32471,-28.19824,48.522949999999994,0.9242471428571429,8.056640125,16.667912337914828,26.06201,-27.28271,53.34472,-3.1738278571428573,-3.31878675,19.6296094041518,33.99658,-30.94482,64.9414,1.7874588571428571,0.00048827749999998983,0.13806634368588794,0.1831055,-0.2128905999999999,0.3959960999999999,-0.023577015714285714,-0.9820555375,0.1825998306765209,-0.7714844,-1.295898,0.5244136,-0.01792685714285715,-0.2836303699999999,0.16861362752890677,0.01464844,-0.5722655999999999,0.5869140399999999,-0.003906257142857131,1.0411623444060751,0.1900123281280489,1.3362871890973886,0.8029762789962963,0.5333109101010923,0.01901598781320971,-109.1004125,0.6385218184827917,-108.0835,-110.1654,2.0819000000000045,0.08159999999999863,0.18951423750000002,1.5605641736733453,2.39502,-1.812744,4.207764,-0.3711808714285714,92.993775,2.972862369621959,98.08594,88.6377,9.448239999999998,-1.1056957142857138,143.3805251573428,1.859024729855751,147.00579069227214,141.39767195672096,5.608118735551187,-0.7826009720164352,1
-3.5400384285714286,18.534734137012343,20.32471,-28.19824,48.522949999999994,-0.40690166666666655,37.60637442857143,38.5876629259383,98.81592,3.173828,95.642092,15.309652,2.563476714285715,23.280946154823337,41.3208,-24.23096,65.55176,10.203043333333333,0.05929129285714283,0.15794921948402132,0.3105468999999999,-0.1210938,0.4316406999999999,0.027832031666666663,-0.9530551285714285,0.19426160833946507,-0.7148437999999999,-1.295898,0.5810542000000001,0.03133136666666667,-0.32638114285714276,0.126374249614071,-0.2016601999999999,-0.5722655999999999,0.37060540000000003,0.022542316666666663,1.025254099754155,0.20099477366324722,1.3362871890973886,0.7742293744903596,0.5620578146070291,-0.03753345801730379,-108.49627142857142,2.164473213597468,-104.425,-111.7969,7.371899999999997,0.6839000000000013,-1.7311312857142858,2.2304512097915463,2.39502,-5.08667,7.48169,-0.5456543333333334,83.42232857142857,18.900166772338657,95.31189,42.77527,52.536620000000006,-8.648986666666667,137.6227136608401,11.234145820059485,144.7739050710965,112.96096033701997,31.812944734076524,-5.1777765293555404,1
1.691545857142857,16.221950052190092,16.54053,-22.27783,38.81836,-2.034505166666667,76.39857714285715,27.32091515833594,110.2295,33.69141,76.53809000000001,-2.441405000000001,22.251674285714284,24.338104851029968,53.16162,-24.23096,77.39258,6.6731783333333325,-0.009277338571428557,0.17211689848761294,0.3105468999999999,-0.1904296999999999,0.5009765999999998,-0.010498043333333318,-0.8685824999999999,0.12456497198969434,-0.7148437999999999,-1.056152,0.34130820000000006,-0.014811183333333347,-0.3222656428571428,0.07350808036832542,-0.2329101999999999,-0.4580077999999999,0.2250976,-0.013020833333333334,0.9428023616622667,0.12231648793133754,1.1252304588250577,0.7742293744903596,0.3510010843346981,0.019597342618177138,-105.86191428571429,3.8390231211548973,-100.9314,-111.7969,10.865499999999997,1.3028000000000002,-2.9372732857142863,1.2973242495143242,-1.741333,-5.08667,3.345337,-0.3863526666666666,12.21758371428572,60.448141855395605,90.74707,-66.79138,157.53845,-26.256408333333336,119.77061964699035,13.903701290759816,141.6519965068871,107.29758472918618,34.3544117777009,-3.4240541813888754,1
-0.3814697500000004,16.35682688688772,16.11328,-22.27783,38.39111,5.484444285714285,44.540406499999996,43.89469766707762,110.2295,-19.83643,130.06593,-15.842982857142857,16.33453375,24.152430221918774,53.16162,-20.87402,74.03564,-4.516601428571429,-0.08923338999999997,0.11109804936242153,0.06445313,-0.2392578,0.30371093,0.019461495714285713,-0.824340775,0.12666289669895725,-0.6967772999999999,-1.024902,0.32812470000000005,0.016252800000000005,-0.32562258749999995,0.1332222925643928,-0.1157227,-0.4580077999999999,0.3422850999999999,-0.020019528571428555,0.9032863093363062,0.14331529130516635,1.1137983090415786,0.7216301424045145,0.3921681666370641,-0.0075688451683125135,-105.41245,2.54387693547804,-100.9314,-107.3639,6.4325000000000045,0.11299999999999955,-0.313796875,2.707679463231751,2.8125,-4.3396,7.1521,0.45436314285714285,-57.64526175,34.93582876686571,4.575806,-87.48413,92.059936,-13.151419428571428,123.91094375996194,13.56309701646432,137.88771945700827,107.29758472918618,30.59013472782209,4.344344350663188,1
9.4375615,17.936947832377623,29.60205,-22.03369,51.63574,3.993442857142857,3.1814575,22.6180345006589,34.17969,-31.25,65.42969,1.7264225714285715,-2.6321405,23.83848244369707,30.57861,-40.71045,71.28906,-3.4790034285714286,-0.10559080749999997,0.3036244417412853,0.3344727,-0.734375,1.0688477,0.008091512857142841,-0.9354247375,0.4467045286357989,-0.6542969,-1.972656,1.3183591,0.006277899999999995,-0.24877930874999998,0.18381716874290924,0.04882813,-0.4511718999999999,0.5000000299999999,-0.022321428571428558,1.028965877228705,0.446088433303463,2.0070170999571304,0.7216301424045145,1.2853869575526158,0.0001662905461976719,-107.9193875,1.5948071826466768,-106.3641,-111.286,4.921900000000008,-0.3633428571428579,2.4472048625,1.4543331504646606,5.141602,0.6646729,4.4769290999999996,-0.30683244285714284,-84.1092675,3.8231021624956014,-79.28833,-88.25317,8.964839999999995,-1.279122857142856,136.88981746004225,2.3892723431197536,140.17121474222193,132.69465399649263,7.4765607457293015,1.0680801065327574,1
19.317627500000004,15.753491783753136,37.41455,-4.089355,41.503904999999996,-6.738280999999999,-8.117677,17.02379751888847,20.62988,-31.25,51.87988,-1.8310551999999998,-11.271157333333335,29.672971690211185,21.66748,-52.24609,73.91357,12.475586000000002,-0.17513019333333332,0.369084521564523,0.3344727,-0.734375,1.0688477,0.1328125,-0.9458820666666666,0.5278460971238327,-0.6420897999999999,-1.972656,1.3305662,0.07822259999999999,-0.13802082833333332,0.23947927707702396,0.2275391,-0.4291992,0.6567383,-0.052734386,1.0578369292985597,0.5125117646710327,2.0070170999571304,0.7056461343362479,1.3013709656208825,-0.11689243205341518,-109.36431666666665,1.4954270017846618,-107.8198,-111.286,3.4662000000000006,-0.6624799999999993,3.324279983333333,1.722477701991373,5.141602,0.6646729,4.4769290999999996,0.26916499999999993,-86.14746166666667,4.596648872521876,-79.68384,-90.29114,10.607299999999995,-0.24060200000000123,139.3131731131228,2.850941524074188,142.74783651251013,135.15721750775614,7.590619004753989,0.67378558117328,1
-13.387044999999999,56.03201384651166,37.41455,-73.48633,110.90088,-55.45044,-23.25439666666667,16.469655580179367,-12.75635,-42.23633,29.479980000000005,-13.73291,5.0455733333333335,51.052186907424776,45.71533,-52.24609,97.96142,48.98071,-0.20149737999999998,0.21259043963502028,-0.0703125,-0.4467773,0.3764648,0.17968748,-0.8662109333333333,0.3655923087473441,-0.6420897999999999,-1.288086,0.6459962000000001,-0.32299810000000007,-0.10904949999999998,0.29811937917128095,0.2275391,-0.3398438,0.5673828999999999,-0.28369144999999996,0.9517763338039013,0.3363508050058444,1.3350275356081296,0.7056461343362479,0.6293814012718817,0.2601861020704015,-110.03173333333332,1.098654505899526,-108.9349,-111.1322,2.1972999999999985,-0.546599999999998,5.661621,2.4671970473440106,8.415527,3.652954,4.7625730000000015,2.3812865000000007,-84.75586,8.874115171125517,-74.52026,-90.29114,15.770880000000005,7.885440000000003,139.14654659407722,5.223985548900804,142.74783651251013,133.1550713820744,9.592765130435737,-4.190830252786384,1
-7.446289499999999,44.8470952790708,23.01025,-73.48633,96.49658,32.165526666666665,-13.916017000000002,20.962415501168977,6.04248,-42.23633,48.27881,16.092936666666667,17.456052500000002,33.356592287543776,45.71533,-30.51758,76.23291,-25.410970000000002,-0.07885741749999997,0.18803096933396446,0.07617188,-0.3408202999999999,0.41699217999999993,0.054524739999999995,-0.883667,0.3041877235977701,-0.5981445,-1.288086,0.6899415000000001,0.22998050000000003,-0.31176757499999996,0.060429285334202845,-0.2211913999999999,-0.3452148,0.12402340000000009,-0.0017903333333333382,0.9602104605530586,0.28503540787378834,1.3350275356081296,0.6948037538197562,0.6402237817883734,-0.21340792726279112,-109.64767499999999,1.4863898644590712,-107.7429,-111.33,3.5870999999999924,0.17946666666666525,7.2976685,0.999871161141108,8.415527,6.28418,2.1313470000000008,-0.19042966666666702,-71.696775,2.469941094378567,-68.49426,-74.52026,6.025999999999996,2.0086666666666653,131.22659056026728,1.952896448329651,133.1550713820744,129.3869782042932,3.7680931777811963,-1.2560310592603987,1
10.41085457142857,25.47733085734047,42.84668,-27.83203,70.67871,6.663004666666667,-5.545480428571429,22.397643843597507,35.21729,-35.82764,71.04493,-0.457763333333333,-2.1362321428571427,25.551652590986468,31.98242,-30.51758,62.5,-9.643555000000001,-0.056919638571428566,0.17167556642886556,0.1049804999999999,-0.3408202999999999,0.4458007999999998,-0.004313150000000001,-0.8664899714285713,0.17313062762319778,-0.5981445,-1.095703,0.4975585000000001,-0.02661133333333332,-0.28383089999999994,0.06942739813858309,-0.1953125,-0.3564452999999999,0.1611327999999999,0.024251299999999986,0.9318547744545382,0.15777668416170104,1.1527015068710924,0.6948037538197562,0.4578977530513362,0.017180976943344195,-110.1246,1.6605312673960668,-107.7429,-113.0054,5.262499999999989,-0.2636833333333328,6.976318428571429,0.8222086335602127,8.217773,5.971069,2.2467039999999994,0.000915500000000069,-68.87015,3.9221271862090363,-61.1499,-71.9165,10.766599999999997,1.7944333333333329,130.11189740390822,2.693097641215775,133.60633750782506,125.4412928526619,8.165044655163157,-0.7114578593402546,1
-5.052354666666666,33.332751824406515,42.84668,-65.06348,107.91015999999999,-7.4081425,-6.062824922222222,24.24260182043186,35.21729,-43.5791,78.79639,-2.89917,0.13563344444444356,28.62742272805027,37.59766,-49.31641,86.91407,3.33404575,-0.08713107777777777,0.13893621418529575,0.1049804999999999,-0.3334960999999999,0.43847659999999977,-0.009521488749999987,-0.9520399777777775,0.23341786974875542,-0.6865234,-1.432129,0.7456056,-0.008667000000000008,-0.2800021622222222,0.1620544134432316,0.02490234,-0.5776367,0.60253904,-0.0448608375,1.0159159072907245,0.23531432942302571,1.4709825206078586,0.7240295069440627,0.746953013663796,0.023066883723248693,-110.85631111111111,1.5061684172465912,-108.9349,-113.0054,4.070499999999996,-0.14076249999999924,6.701660111111111,0.8384680607203299,8.217773,5.493164,2.724608999999999,-0.12290962500000002,-67.99011111111112,4.752943950885715,-61.1499,-73.91052,12.760620000000003,0.18401999999999852,130.26717826384987,3.3327789245048893,134.1822861257723,125.20204175189541,8.980244373876886,0.020394567514021134,1
-8.560181374999999,26.482502492983393,11.1084,-65.06348,76.17188,8.108957,-5.928038662499999,23.65997825531526,29.66309,-43.5791,73.24219,-5.196707571428571,6.553649499999999,29.322386552957045,37.59766,-49.31641,86.91407,-4.272461428571428,-0.058532717499999984,0.14237527607587686,0.140625,-0.3334960999999999,0.4741210999999999,0.014718198571428557,-0.8934326625,0.26407462386194624,-0.6679687999999999,-1.432129,0.7641602000000001,0.0989816,-0.25842285749999994,0.17511318937393983,0.02490234,-0.5776367,0.60253904,0.021554128571428584,0.9522097740676876,0.277362747059098,1.4709825206078586,0.6929301532867413,0.7780523673211173,-0.10211861879839415,-110.7016625,1.2916722095656783,-108.9349,-113.0054,4.070499999999996,-0.19697142857142833,6.63368225,0.8695172834552266,8.21228,5.493164,2.7191159999999996,-0.0839668571428571,-67.83370875,4.282094450811383,-61.29272,-73.91052,12.617800000000003,-0.4072800000000001,130.0426204614996,2.899938077528978,134.1822861257723,125.20204175189541,8.980244373876886,0.36806192666876064,1
-17.063686,30.728090737850355,8.117676,-79.58984,87.707516,-3.2043459999999997,-1.9967228571428564,29.56353354131782,35.52246,-35.70557,71.22803,-10.894776666666667,4.255021028571428,15.316853143559632,26.9165,-22.46094,49.37744,4.435221833333333,-0.04052734714285713,0.1383930764261779,0.140625,-0.3027343999999999,0.4433593999999999,-0.022216798333333333,-0.8439592999999999,0.23856058987661816,-0.5581054999999999,-1.141113,0.5830075000000001,-0.0021972500000000026,-0.31103517142857134,0.23808673096412236,-0.1328125,-0.7709961,0.6381836,0.0035807333333333496,0.9162885486532258,0.31463473965998545,1.4005770843418688,0.5740746859789133,0.8265023983629555,0.0020693370483794347,-110.28391428571429,0.7632798818881865,-109.314,-111.308,1.994000000000014,-0.1464833333333336,7.048514142857143,1.375590330192754,8.651733,5.163574,3.4881590000000005,0.4101561666666666,-65.95485,2.9719091437716147,-61.41357,-69.4281,8.01453,0.8084100000000009,128.72786844731877,1.1293442560886073,130.31021378849508,127.28071930750117,3.029494480993904,-0.2640839849952717,1
-8.065360571428572,39.51181986958786,35.40039,-79.58984,114.99023,18.636066666666665,-0.6975471428571421,29.61861485865081,35.52246,-35.70557,71.22803,-8.280436666666667,-2.502441257142858,21.019085660618487,15.07568,-48.46191,63.53759,-10.589598333333333,-0.12946429857142858,0.23205974573348692,0.1220702999999999,-0.5664063,0.6884765999999999,-0.043945316666666685,-0.9708427142857142,0.4906498822664706,-0.5581054999999999,-1.947266,1.3891605,0.08024096666666665,-0.2596958857142857,0.2959185065570611,0.1582030999999999,-0.7709961,0.9291991999999999,0.1548665333333333,1.0709994887502803,0.4917369166136833,1.957373987664335,0.5740746859789133,1.3832993016854216,-0.08759070622545286,-110.58054285714287,1.2072363450696595,-109.27,-112.5934,3.3234000000000066,0.3396666666666685,7.0398819999999995,1.3848288456953806,8.651733,5.163574,3.4881590000000005,0.30212400000000006,-63.82507285714286,4.493212285231707,-55.9259,-69.4281,13.502200000000002,-0.959473333333334,127.94455495867291,1.385340788198721,130.31021378849508,125.9097556680403,4.400458120454772,0.2063522944829709,1
9.774344142857144,18.36044014268203,35.40039,-8.483887,43.884277,-7.0597330000000005,-3.016881428571429,22.749060189404478,32.53174,-29.54102,62.07276,-0.7629383333333332,-2.0141594285714293,30.892431688868413,40.1001,-48.46191,88.56201,-4.3233235,-0.12018695000000001,0.22626721915597223,0.1220702999999999,-0.5664063,0.6884765999999999,-0.034912106666666644,-1.0576868857142858,0.5108469841321418,-0.5854492,-1.947266,1.3618168,0.22696946666666665,-0.1466239,0.2164525044262443,0.1582030999999999,-0.3461914,0.5043944999999999,0.05240885,1.1230270608391584,0.4844697742306285,1.957373987664335,0.6125878654994363,1.3447861221648987,-0.22413102036081645,-109.82877142857144,1.3487154749542092,-108.7317,-112.5934,3.861699999999999,0.5859333333333344,7.676304428571429,1.1690972269638737,9.387817,5.723877,3.66394,0.1583861666666667,-58.91889285714286,4.7146789959363975,-54.28894,-67.17041,12.881470000000007,-0.5218516666666666,124.93912377507533,2.3464832509118465,128.518833074399,121.9156447537813,6.603188320617704,-0.26989915682582694,1
10.009766425000002,36.92460549047453,98.81592,-12.69531,111.51123000000001,-1.5520364285714285,-2.220155000000001,27.748402458025268,34.60693,-39.85596,74.46289,2.851212857142857,5.09643625,24.43317329630291,40.1001,-23.4375,63.5376,5.850655714285714,0.00091552725000002,0.20216013011523967,0.4448242,-0.1977538999999999,0.6425780999999999,0.02148437685714286,-1.0095824125,0.3558102725231461,-0.5854492,-1.524902,0.9394528,-0.035365571428571406,-0.20477294749999997,0.18678398586655667,0.1577148,-0.4497069999999999,0.6074217999999999,-0.0186941857142857,1.0567025004745205,0.37283846560204703,1.5761602710394556,0.6125878654994363,0.9635724055400192,0.038046224667701516,-109.61335000000001,0.856701256481594,-108.7317,-111.3574,2.625699999999995,-0.3484142857142863,8.210906875000001,0.952868933070836,9.387817,6.712646,2.6751709999999997,0.2809361428571429,-54.13993875,3.5618122383513766,-48.62549,-59.12292,10.497430000000001,0.280935714285714,122.57544345437223,1.2812815390135603,124.29036072708534,120.74922575103993,3.541134976045413,0.2096839705756009,1
5.2795413,45.48546267615529,98.81592,-65.7959,164.61182000000002,1.4299665714285712,-7.385255000000001,28.330420319339726,34.60693,-39.85596,74.46289,-0.30517571428571444,-0.6332396249999999,18.165728500086434,17.51709,-33.69141,51.2085,-6.260464285714286,-0.012573243999999983,0.22187698949515575,0.4448242,-0.3413085999999999,0.7861327999999999,0.005301337142857128,-0.9082031625,0.3920271729318734,-0.5644530999999999,-1.500977,0.9365239000000001,0.01750837142857144,-0.23181150999999994,0.24887166021065601,0.1557617,-0.684082,0.8398437,0.04764229999999999,0.9711063307690426,0.4374281611338197,1.6844559055335822,0.5916818153468835,1.0927740901866987,-0.01833868394402351,-109.94773750000002,1.1075225362911845,-108.3252,-111.676,3.3508000000000067,0.13732857142857263,7.5881195,1.459410264775076,9.266968,5.421753,3.8452150000000005,-0.2660259999999998,-51.53549125,1.9279342567735747,-48.62549,-53.69019,5.064700000000002,0.13968428571428554,121.68597426094843,0.8971724294233138,123.3834325478105,120.67630894408668,2.707123603723815,-0.20183294929098647,1
