Timestamp,AccX,AccY,AccZ,GyroX,GyroY,GyroZ,AngX,AngY,AngZ,MagX,MagY,MagZ,Tag
0,-0.015136720000000001,-0.8803711,-0.4448242,-0.6103516,-0.06103516,0.0,-119.2456,3.718872,-35.16174,6.141667,-11.1,81.20834,1
1479,-0.01904297,-0.8808594,-0.43603519999999996,1.098633,-0.42724609999999996,-0.3662109,-118.949,3.554077,-32.77771,-15.10833,-7.441667,0.125,1
1679,-0.01904297,-0.8808594,-0.43603519999999996,1.098633,-0.42724609999999996,-0.3662109,-118.949,3.554077,-32.77771,-14.975,-7.575,-0.08333334,1
1879,-0.01904297,-0.8808594,-0.43603519999999996,1.098633,-0.42724609999999996,-0.3662109,-118.949,3.554077,-32.77771,-14.95,-7.45,0.2666667,1
2079,-0.01904297,-0.8808594,-0.43603519999999996,1.098633,-0.42724609999999996,-0.3662109,-118.949,3.554077,-32.77771,-15.225,-7.241667,-0.17500000000000002,1
2300,-0.002441406,-0.8745117,-0.4521484,-5.493164,-0.793457,-3.601074,-119.35,2.817993,-30.6134,-14.725,-7.85,-0.8166667,1
2539,0.01806641,-0.8745117,-0.4643555,0.793457,3.356934,-1.220703,-120.141,2.120361,-29.98169,-14.93333,-7.6,0.425,1
2750,0.01269531,-0.8789062999999999,-0.45068359999999996,1.159668,-1.464844,3.2958979999999998,-119.4379,2.39502,-30.16846,5.591667,-12.04167,81.625,1
3049,-0.007324219000000001,-0.8779296999999999,-0.4482422,-1.281738,-0.6713867,1.159668,-119.4763,2.834473,-29.72351,-14.98333,-7.691667,-0.2833333,1
3300,-0.008300781,-0.871582,-0.4619141,-1.586914,-1.098633,0.4882813,-120.0476,3.015747,-29.1687,-14.85,-7.833333,-0.5,1
3559,-0.02148438,-0.8657227,-0.4838867,-0.6103516,-0.06103516,0.42724609999999996,-120.7178,3.466187,-28.25684,6.666667,-12.61667,83.15,1
3859,-0.0078125,-0.8671875,-0.47412109999999996,-0.3051758,-1.220703,-1.7700200000000001,-120.5145,3.218994,-28.3667,-14.8,-7.966667,-0.2666667,1
4109,-0.01171875,-0.8725586,-0.4848633,3.2958979999999998,0.0,0.24414059999999999,-120.5365,3.202515,-27.70203,-14.75833,-7.733333,0.36666669999999996,1
4379,-0.015625,-0.8696288999999999,-0.4628906,0.5493163999999999,0.4882813,0.06103516,-119.9597,3.087158,-27.53174,6.2,-12.15833,82.41666,1
4679,-0.01416016,-0.8691405999999999,-0.4545898,-1.159668,-1.281738,-0.12207029999999999,-119.9982,3.12561,-27.1637,-14.88333,-8.116667,-0.40833329999999995,1
4929,-0.0078125,-0.8730469,-0.48291019999999996,6.04248,2.685547,0.6103516,-120.2838,3.257446,-26.6803,-14.89167,-7.725,0.7333333,1
5199,-0.01806641,-0.8896484,-0.4677734,7.385254,0.42724609999999996,-0.7324219,-118.2733,2.839966,-27.8833,5.858333,-10.88333,80.38333,1
5539,-0.004882813000000001,-0.8959961,-0.40380859999999996,-0.6103516,-1.89209,-1.220703,-116.7133,2.614746,-26.54846,-15.26667,-6.85,-0.05,1
5749,-0.006347656,-0.8969727,-0.4130859,-0.5493163999999999,0.24414059999999999,0.5493163999999999,-116.8066,2.598267,-26.06506,-15.31667,-7.075,-0.30000000000000004,1
5959,-0.006835938000000001,-0.8935546999999999,-0.4160156,-2.13623,-0.8544921999999999,0.3051758,-117.1417,2.70813,-25.74646,-15.25,-7.1,-0.31666669999999997,1
6170,-0.011230470000000001,-0.8896484,-0.4208984,-0.3051758,0.0,0.06103516,-117.5262,2.785034,-25.21912,6.091667,-10.78333,80.45834,1
6419,-0.008789063,-0.8911133,-0.4238281,0.3051758,0.06103516,0.0,-117.5372,2.763062,-24.91699,6.1,-10.71667,80.35833,1
6649,-0.009277344,-0.8925780999999999,-0.4223633,-0.06103516,-0.06103516,-0.06103516,-117.4493,2.735596,-24.64783,-15.20833,-7.141667,0.125,1
6949,-0.009765625,-0.8925780999999999,-0.4155273,1.159668,-0.3051758,0.3662109,-117.0758,2.741089,-24.17542,-15.26667,-7.016667,0.08333334,1
7190,-0.01025391,-0.8945312999999999,-0.4169922,-1.098633,-0.24414059999999999,0.0,-117.0703,2.757568,-23.746950000000002,6.3,-10.55833,80.20834,1
7489,-0.01025391,-0.8925780999999999,-0.4169922,-0.5493163999999999,0.06103516,0.0,-117.2681,2.735596,-23.47229,-15.23333,-7.233333,-0.125,1
7739,-0.01367188,-0.8896484,-0.42822269999999996,-2.990723,-1.953125,0.9765625,-117.6471,2.785034,-23.13171,-15.1,-7.266667,-0.5666667,1
8009,-0.01464844,-0.8828125,-0.44384769999999996,-2.502441,-1.159668,-0.12207029999999999,-118.7567,3.103638,-22.23633,6.641667,-11.36667,81.775,1
8309,-0.0234375,-0.8818359,-0.4448242,1.8310549999999999,1.708984,-0.1831055,-118.526,2.971802,-22.21436,-15.15833,-7.616667,0.25,1
8549,-0.01171875,-0.887207,-0.43505859999999996,1.7700200000000001,0.4882813,0.42724609999999996,-118.0151,2.768555,-21.95068,-15.15833,-7.316667,0.2333333,1
8829,-0.01464844,-0.8862304999999999,-0.42724609999999996,-0.3662109,-1.281738,0.3662109,-117.746,2.807007,-21.70898,-15.11667,-7.2,-0.24166669999999998,1
9079,-0.015136720000000001,-0.8876953,-0.43603519999999996,-0.42724609999999996,-0.1831055,0.0,-118.1635,2.938843,-21.23108,-15.1,-7.35,-0.24166669999999998,1
9349,-0.01318359,-0.8803711,-0.4628906,-5.249023,0.0,-0.6713867,-119.306,2.883911,-20.80261,-15.01667,-8.183333,0.275,1
9689,-0.026367190000000002,-0.8803711,-0.44238279999999996,6.530762,-2.685547,1.6479489999999999,-118.3502,3.191528,-20.3302,-15.1,-6.991667,0.5166666999999999,1
9919,-0.030273440000000002,-0.8935546999999999,-0.4287109,0.7324219,-3.540039,6.225586,-117.4713,4.152832,-19.74792,-15.10833,-7.25,-0.55,1
10139,-0.08007813,-0.8886719,-0.45898439999999996,-3.662109,-13.12256,2.319336,-118.3997,6.146851,-17.94067,9.9,-10.35,83.39167,1
10420,-0.1303711,-0.8769530999999999,-0.4306641,1.342773,0.5493163999999999,0.5493163999999999,-118.147,8.475952,-14.85901,12.31667,-10.23333,85.26667,1
10649,-0.09326172,-0.8779296999999999,-0.4375,-2.01416,9.58252,-6.591797,-118.3832,6.965332,-16.18835,-15.0,-7.525,-0.3416667,1
10919,-0.06982422,-0.8818359,-0.4716797,-2.502441,2.868652,-6.103516,-118.9709,5.169067,-16.82007,-14.88333,-7.783333,-0.01666667,1
11139,-0.01464844,-0.8911133,-0.4492188,-7.507324,8.972168,-14.16016,-119.5203,2.6202389999999998,-17.85278,-14.54167,-8.375,-1.5833329999999999,1
11359,0.03662109,-0.8535155999999999,-0.5,-2.563477,0.1831055,1.708984,-121.712,0.1812744,-16.82007,-14.55833,-8.875,0.075,1
11630,-0.004394531,-0.8735352,-0.49121089999999995,-0.4882813,8.300781,12.146,-121.1462,1.087646,-19.23157,5.558333,-13.525,82.94167,1
11899,-0.0034179690000000003,-0.8461913999999999,-0.4619141,2.13623,3.967285,2.441406,-121.0419,1.115112,-21.95618,-14.775,-8.35,-0.01666667,1
12149,-0.0234375,-0.8227538999999999,-0.4765625,-0.42724609999999996,-6.04248,0.1831055,-120.4047,1.148071,-20.4126,5.233333,-12.525,81.86667,1
12459,-0.007324219000000001,-0.8745117,-0.4677734,1.953125,-1.586914,-1.037598,-119.8718,1.367798,-18.62183,5.65,-12.575,82.075,1
12719,-0.002441406,-0.8681641,-0.44189449999999997,-0.42724609999999996,-0.12207029999999999,0.793457,-119.328,1.439209,-18.3197,-14.90833,-7.95,0.08333334,1
12969,-0.001953125,-0.875,-0.4648438,2.197266,1.220703,0.6103516,-119.3555,1.543579,-18.22083,5.791667,-12.125,81.70834,1
13269,-0.00390625,-0.8769530999999999,-0.43603519999999996,0.1831055,-0.12207029999999999,0.5493163999999999,-118.7512,1.746826,-17.88574,-14.96667,-7.625,-0.01666667,1
13579,-0.006347656,-0.8798828,-0.4482422,-0.3662109,0.0,-0.12207029999999999,-118.8007,1.774292,-17.61108,-14.991670000000001,-7.675,-0.06666667,1
13879,-0.006347656,-0.8769530999999999,-0.45117189999999996,-0.4882813,-0.3051758,0.3051758,-118.916,1.763306,-17.31995,-14.95833,-7.7,-0.1333333,1
14249,-0.008789063,-0.8745117,-0.4555664,-0.9155272999999999,-0.24414059999999999,0.06103516,-119.2181,1.911621,-16.84753,5.991667,-12.04167,81.70834,1
14519,-0.009277344,-0.8725586,-0.45800779999999996,-0.42724609999999996,0.0,-0.1831055,-119.3445,1.906128,-16.62231,-14.89167,-7.85,-0.04166667,1
14759,-0.007324219000000001,-0.8735352,-0.4570313,0.0,0.4882813,-0.12207029999999999,-119.35,1.801758,-16.35315,6.025,-12.04167,81.9,1
14999,-0.004882813000000001,-0.8740234,-0.4604492,0.24414059999999999,-0.12207029999999999,0.1831055,-119.3335,1.801758,-16.11694,-14.91667,-7.783333,0.1083333,1
15239,-0.0078125,-0.8745117,-0.45751949999999997,1.403809,-0.06103516,0.24414059999999999,-119.1687,1.829224,-15.94116,-14.98333,-7.775,0.2166667,1
15459,-0.007324219000000001,-0.8774413999999999,-0.4458008,1.6479489999999999,0.8544921999999999,-2.502441,-118.7018,1.620483,-15.80933,5.783333,-11.75,81.29166,1
15709,0.008789063,-0.8940429999999999,-0.39599609999999996,15.07568,9.399414,-3.601074,-117.0428,0.6591796999999999,-16.08398,-15.15,-6.841667,0.6000000000000001,1
15980,0.030273440000000002,-0.8989258,-0.3999023,-0.3662109,-1.586914,-0.1831055,-116.142,0.02197266,-15.86975,4.65,-10.93333,79.23333,1
16250,0.01757813,-0.9008788999999999,-0.3828125,-0.3662109,0.3662109,0.3662109,-115.5597,0.09887695,-15.52368,4.6,-10.625,78.675,1
16559,0.01904297,-0.8964844,-0.3857422,-8.300781,-7.385254,-2.01416,-115.9937,0.1483154,-15.3479,-15.28333,-6.983333,-0.35000000000000003,1
17909,0.02685547,-0.8828125,-0.42773439999999996,-2.258301,-1.281738,0.6103516,-118.1415,1.131592,-12.80457,-15.09167,-7.466667,-0.31666669999999997,1
18209,0.006347656,-0.8706054999999999,-0.4462891,-3.662109,-3.173828,-0.8544921999999999,-119.3225,1.340332,-12.57385,5.991667,-12.425,82.3,1
18479,0.0004882813,-0.8691405999999999,-0.4697266,0.3051758,1.098633,0.0,-119.7729,1.411743,-12.51343,5.958333,-12.46667,82.45,1
18779,-0.002441406,-0.8745117,-0.46533199999999997,2.868652,2.13623,0.3051758,-119.306,1.290894,-12.55737,-14.96667,-7.791667,0.1833333,1
19029,-0.001464844,-0.8759766,-0.45166019999999996,0.0,0.8544921999999999,0.24414059999999999,-119.1083,1.439209,-12.18933,-14.93333,-7.741667,0.1083333,1
19299,-0.001464844,-0.8764647999999999,-0.45166019999999996,0.24414059999999999,-0.24414059999999999,0.0,-118.938,1.329346,-12.11243,5.908333,-12.09167,81.45834,1
19640,0.0,-0.8764647999999999,-0.45166019999999996,-0.06103516,-0.12207029999999999,0.0,-118.8776,1.30188,-11.90918,-14.95,-7.691667,-0.008333334000000001,1
19839,0.0,-0.8769530999999999,-0.4545898,-0.12207029999999999,0.06103516,0.0,-118.8831,1.2854,-11.74988,-14.975,-7.733333,-0.03333333,1
20059,0.0004882813,-0.8774413999999999,-0.4536133,-0.1831055,0.06103516,0.0,-118.938,1.263428,-11.59607,-14.95,-7.733333,0.03333333,1
20270,0.0,-0.8769530999999999,-0.453125,0.12207029999999999,0.1831055,0.0,-118.9105,1.175537,-11.51917,5.775,-12.11667,81.63333,1
20509,0.0,-0.8759766,-0.4526367,0.4882813,0.1831055,0.0,-118.8501,1.098633,-11.53015,-14.98333,-7.675,0.06666667,1
20780,0.0,-0.8784179999999999,-0.4487305,0.0,0.0,0.0,-118.7567,1.016235,-11.56311,-14.991670000000001,-7.75,0.05833333,1
20999,-0.001464844,-0.8754883,-0.44384769999999996,1.89209,1.159668,0.06103516,-118.5974,0.9667969,-11.58508,-15.00833,-7.558333,0.1,1
21219,-0.0004882813,-0.8813477,-0.4467773,-0.1831055,0.6713867,0.1831055,-118.515,1.010742,-11.27197,5.65,-11.88333,81.35833,1
21459,-0.001953125,-0.8803711,-0.4443359,-0.3051758,0.12207029999999999,0.0,-118.5754,1.005249,-11.16211,-15.025,-7.666667,-0.04166667,1
21709,0.001464844,-0.8803711,-0.4550781,-0.12207029999999999,-0.1831055,0.12207029999999999,-118.6249,0.9997558999999999,-10.96436,-15.00833,-7.575,0.06666667,1
22010,0.0,-0.8798828,-0.44970699999999997,-1.159668,0.06103516,0.0,-118.6743,1.027222,-10.74463,5.675,-11.925,81.275,1
22319,0.0,-0.8779296999999999,-0.45117189999999996,0.3051758,0.0,0.0,-118.7567,1.021729,-10.51941,5.741667,-11.991670000000001,81.54166,1
22579,-0.001464844,-0.8793945,-0.4462891,0.9155272999999999,-0.06103516,0.0,-118.5754,1.027222,-10.34912,-15.01667,-7.591667,0.1416667,1
22829,0.001464844,-0.8798828,-0.44287109999999996,0.24414059999999999,-0.1831055,0.0,-118.3502,1.021729,-10.12939,5.7,-11.66667,81.175,1
23159,0.0,-0.8720703,-0.43408199999999997,-3.112793,-0.5493163999999999,0.3051758,-118.493,1.087646,-9.893188,-14.91667,-7.666667,-0.7083332999999999,1
23449,-0.01074219,-0.8652344,-0.44287109999999996,-2.868652,-0.9155272999999999,0.9155272999999999,-119.4818,1.224976,-9.766846,-14.83333,-7.958333,-0.5833332999999999,1
23749,-0.02587891,-0.8657227,-0.4677734,1.708984,1.281738,1.953125,-119.8718,1.576538,-9.569092,-14.975,-8.308333,0.5,1
24119,0.0,-0.8642578,-0.5288086,-15.38086,6.347656,7.568359,-121.6187,1.373291,-10.9314,5.85,-12.975,82.7,1
24369,-0.04248047,-0.8310546999999999,-0.5190429999999999,-5.493164,-7.385254,0.9155272999999999,-123.2776,2.548828,-10.47546,-14.45,-9.008333,-0.1833333,1
24629,-0.008789063,-0.8310546999999999,-0.5405272999999999,-7.385254,0.9765625,-5.859375,-124.4092,2.04895,-9.179077,6.475,-14.98333,85.525,1
24849,0.03662109,-0.8203125,-0.5615234,-3.845215,0.6103516,-9.58252,-124.9475,0.5328369,-8.014526,5.466667,-16.31667,85.75833,1
25119,0.0004882813,-0.840332,-0.5395508,12.69531,1.708984,2.13623,-123.6896,0.1318359,-8.031006,-14.675,-8.816667,1.65,1
25329,-0.001464844,-0.8652344,-0.484375,10.62012,-2.01416,2.13623,-120.1135,0.9173583999999999,-8.695679,5.85,-12.975,82.74167,1
25579,-0.02148438,-0.8764647999999999,-0.4370117,5.67627,-0.4882813,3.601074,-118.3392,1.7248539999999999,-8.657227,-14.81667,-7.525,0.1666667,1
25850,-0.08544922,-0.8769530999999999,-0.4550781,0.4882813,2.441406,0.06103516,-118.0481,2.037964,-8.481445,6.808333,-11.13333,81.5,1
26129,-0.03515625,-0.8881836,-0.4555664,0.7324219,1.342773,-0.24414059999999999,-117.8339,1.741333,-8.811035,6.4,-10.875,80.99167,1
26429,-0.01416016,-0.8916016,-0.4619141,0.3051758,0.06103516,0.3051758,-117.7954,1.741333,-8.624268,-15.29167,-7.55,-0.1,1
26669,-0.01416016,-0.8886719,-0.4321289,-0.42724609999999996,-0.4882813,-0.24414059999999999,-117.6416,1.642456,-8.217773,6.425,-10.925,81.0,1
26969,-0.0234375,-0.8808594,-0.440918,-0.42724609999999996,-1.7700200000000001,-0.06103516,-117.702,1.8731689999999999,-8.009033,-14.96667,-7.141667,-1.025,1
27269,-0.022460940000000002,-0.8842772999999999,-0.46630859999999996,-4.150391,-0.24414059999999999,-1.708984,-118.8391,1.812744,-7.723389,-15.04167,-8.183333,0.1166667,1
27519,-0.020996090000000002,-0.8754883,-0.4384766,0.9765625,1.037598,-0.1831055,-118.5754,1.928101,-7.119141,-15.125,-8.008333,0.5083333,1
27769,-0.004882813000000001,-0.8720703,-0.4291992,-4.577637,0.3662109,-0.9765625,-118.7347,1.598511,-6.729126,-14.991670000000001,-8.183333,-0.6416666999999999,1
28099,-0.004882813000000001,-0.871582,-0.4638672,0.7324219,-0.5493163999999999,0.6103516,-119.5477,1.389771,-6.59729,-14.90833,-7.958333,0.36666669999999996,1
28409,-0.01806641,-0.8774413999999999,-0.4545898,2.624512,0.1831055,0.06103516,-118.8391,1.653442,-6.575317,-15.025,-7.691667,0.3833333,1
28639,-0.01318359,-0.8793945,-0.4414063,2.197266,0.24414059999999999,0.7324219,-118.3063,1.664429,-6.520386,-14.991670000000001,-7.441667,0.03333333,1
28859,-0.017089840000000002,-0.8779296999999999,-0.440918,-3.662109,-0.24414059999999999,-1.89209,-118.6139,1.582031,-6.322632,6.391667,-11.75,81.975,1
29099,-0.009765625,-0.8798828,-0.45068359999999996,3.845215,1.037598,2.258301,-118.4326,1.604004,-6.212769,-15.00833,-7.375,0.3083333,1
29339,-0.03515625,-0.8754883,-0.4326172,-1.342773,-2.685547,-0.24414059999999999,-118.1415,1.851196,-6.218262,-15.08333,-7.7,0.17500000000000002,1
29549,-0.02050781,-0.8813477,-0.42724609999999996,-0.3051758,-3.2958979999999998,-1.159668,-117.8833,1.417236,-6.37207,6.15,-11.24167,81.13333,1
29799,-0.002929688,-0.8808594,-0.4477539,-1.953125,0.6713867,0.1831055,-118.2843,1.450195,-5.883179,-15.03333,-7.725,-0.15,1
30080,-0.015136720000000001,-0.8779296999999999,-0.44189449999999997,0.0,-1.281738,0.1831055,-118.4161,1.7248539999999999,-5.72937,6.591667,-11.66667,81.875,1
30359,-0.009765625,-0.8813477,-0.45117189999999996,0.24414059999999999,0.6103516,-0.5493163999999999,-118.5425,1.5325929999999999,-5.570068,6.325,-11.7,81.90833,1
30659,-0.009277344,-0.8803711,-0.4472656,0.12207029999999999,-0.06103516,0.12207029999999999,-118.4436,1.483154,-5.515137,-15.025,-7.608333,-0.125,1
30899,-0.01464844,-0.8798828,-0.4404297,3.845215,-0.5493163999999999,0.5493163999999999,-117.8998,1.433716,-5.471191,6.4,-11.25,81.16666,1
31179,-0.02148438,-0.8896484,-0.4150391,1.89209,-2.13623,2.197266,-116.7352,1.8457029999999999,-5.119629,6.716667,-10.63333,80.69167,1
31469,-0.02392578,-0.8916016,-0.4057617,-0.1831055,-0.6713867,0.12207029999999999,-116.532,2.158813,-4.740601,-15.28333,-7.058333,-0.1416667,1
31719,-0.020996090000000002,-0.8935546999999999,-0.4228516,0.5493163999999999,0.3051758,0.06103516,-116.6803,2.125854,-4.597778,-15.25833,-7.141667,-0.03333333,1
31999,-0.03076172,-0.8911133,-0.41992189999999996,-2.563477,-0.3662109,-0.3662109,-116.8341,2.290649,-4.44397,-15.175,-7.266667,-0.49166669999999996,1
32329,-0.02539063,-0.8798828,-0.4228516,-1.8310549999999999,2.13623,-0.6713867,-117.6416,2.059937,-4.586792,-15.15,-7.516667,-0.40833329999999995,1
32639,0.0,-0.8842772999999999,-0.44287109999999996,-1.586914,0.9765625,-1.953125,-118.2129,1.148071,-4.833984,-14.991670000000001,-7.516667,-0.2916667,1
32869,-0.004882813000000001,-0.8730469,-0.4467773,-5.249023,-0.7324219,-0.9155272999999999,-118.7402,0.9667969,-4.685669,-14.94167,-7.833333,-0.7000000000000001,1
33089,-0.0009765625,-0.8818359,-0.47460939999999996,8.056641,2.868652,0.7324219,-118.9105,0.8459473,-4.647217,5.725,-12.0,81.55833,1
33329,0.01074219,-0.8901367,-0.4179688,13.85498,1.525879,0.8544921999999999,-116.3947,0.736084,-4.75708,-15.33333,-6.741667,1.641667,1
34679,-0.006835938000000001,-0.9091796999999999,-0.38134769999999996,-1.8310549999999999,-0.1831055,0.0,-114.516,1.18103,-4.383545,-15.50833,-6.55,-0.225,1
34879,-0.01025391,-0.9086913999999999,-0.3867188,-1.525879,0.24414059999999999,0.24414059999999999,-114.8346,1.175537,-4.301147,-15.48333,-6.625,-0.2083333,1
35099,-0.008789063,-0.9067383,-0.3935547,-1.342773,-0.4882813,-0.06103516,-115.1038,1.170044,-4.180298,-15.425,-6.691667,-0.2083333,1
35319,-0.005859375,-0.9008788999999999,-0.3999023,-3.662109,-0.24414059999999999,-0.3662109,-115.73,1.115112,-3.944092,6.033333,-10.20833,79.51667,1
35559,-0.002441406,-0.8964844,-0.41845699999999997,-5.065918,-0.12207029999999999,-0.793457,-116.6199,1.016235,-3.746338,-15.2,-7.191667,-0.5666667,1
35799,-0.004882813000000001,-0.887207,-0.4248047,-1.403809,-0.4882813,0.3051758,-117.4933,1.027222,-3.598022,5.966667,-11.10833,80.80833,1
36049,-0.006835938000000001,-0.8867187999999999,-0.4394531,-2.563477,-0.42724609999999996,0.3662109,-117.8339,1.087646,-3.526611,-15.09167,-7.425,-0.25,1
36320,-0.009765625,-0.8833008,-0.4477539,-0.9155272999999999,0.6103516,1.342773,-118.3063,1.274414,-3.257446,6.091667,-11.53333,81.59167,1
36629,-0.005371094000000001,-0.8818359,-0.4306641,1.464844,0.5493163999999999,-0.1831055,-117.9987,1.126099,-3.543091,-15.28333,-7.875,0.25,1
36929,-0.01074219,-0.8862304999999999,-0.4316406,2.13623,-0.3662109,0.06103516,-117.5372,1.296387,-3.510132,6.116667,-10.88333,80.63333,1
37239,-0.01367188,-0.8837891,-0.4389648,-2.868652,-0.42724609999999996,0.24414059999999999,-117.7899,1.400757,-3.339844,-15.05,-7.466667,-0.3833333,1
37539,-0.01025391,-0.8828125,-0.45068359999999996,-0.5493163999999999,0.24414059999999999,-0.1831055,-118.4052,1.340332,-3.098145,6.333333,-11.575,81.475,1
37839,-0.009277344,-0.8798828,-0.4492188,0.0,-1.159668,0.12207029999999999,-118.4436,1.367798,-2.8125,6.308333,-11.55,81.73333,1
38149,-0.01367188,-0.8808594,-0.44238279999999996,0.24414059999999999,0.1831055,0.06103516,-118.3282,1.400757,-2.741089,-15.00833,-7.6,-0.008333334000000001,1
38399,-0.01220703,-0.8818359,-0.4467773,-0.12207029999999999,0.3051758,0.0,-118.3337,1.373291,-2.702637,-15.04167,-7.625,0.0,1
38600,-0.01171875,-0.8808594,-0.4458008,0.06103516,0.06103516,0.0,-118.3228,1.351318,-2.609253,6.3,-11.35,81.51667,1
38839,-0.01269531,-0.8818359,-0.4458008,0.4882813,-0.3051758,0.0,-118.2623,1.345825,-2.532349,-15.08333,-7.525,0.1666667,1
39109,-0.01464844,-0.8867187999999999,-0.43505859999999996,2.624512,0.24414059999999999,0.24414059999999999,-117.9932,1.345825,-2.510376,-14.95833,-7.241667,-0.25,1
39329,-0.015625,-0.875,-0.4399414,-10.19287,-0.5493163999999999,-1.281738,-118.4821,1.30188,-2.449951,-14.98333,-8.125,-0.7416667,1
39549,-0.01904297,-0.8740234,-0.456543,4.516602,-0.24414059999999999,1.7700200000000001,-119.0314,1.351318,-2.416992,6.35,-11.825,81.95834,1
39799,-0.009765625,-0.8774413999999999,-0.4648438,-2.197266,-0.1831055,-0.06103516,-119.0863,1.5051269999999999,-2.197266,-14.991670000000001,-8.15,0.35000000000000003,1
40029,-0.02197266,-0.8691405999999999,-0.4326172,1.220703,-0.12207029999999999,0.42724609999999996,-118.8391,1.565552,-2.268677,-14.96667,-7.741667,-0.05833333,1
40259,-0.01953125,-0.8754883,-0.4375,2.624512,0.12207029999999999,-0.6713867,-118.504,1.499634,-2.175293,-15.01667,-7.725,0.1666667,1
40559,-0.015136720000000001,-0.8784179999999999,-0.440918,0.3051758,0.9155272999999999,-0.24414059999999999,-118.2843,1.422729,-1.911621,6.441667,-11.48333,81.65,1
40869,-0.006835938000000001,-0.8862304999999999,-0.4916992,-1.159668,-0.9155272999999999,-0.12207029999999999,-119.35,1.131592,-1.653442,6.225,-12.16667,82.15833,1
41129,-0.01318359,-0.8686522999999999,-0.4316406,0.8544921999999999,-1.159668,0.42724609999999996,-118.8721,1.296387,-1.428223,-14.90833,-7.8,-0.3333333,1
41379,-0.01171875,-0.8759766,-0.4921875,-2.441406,0.3662109,-1.037598,-119.718,1.246948,-1.444702,6.341667,-12.54167,82.65833,1
41659,-0.009277344,-0.8657227,-0.4628906,-1.7700200000000001,-0.42724609999999996,0.06103516,-119.8389,1.40625,-1.054688,-14.75833,-8.15,-0.425,1
41989,-0.024902340000000002,-0.8618163999999999,-0.45166019999999996,0.6713867,-1.403809,0.3051758,-119.9158,1.483154,-1.104126,-14.8,-8.05,-0.1,1
42329,-0.00390625,-0.8696288999999999,-0.48974609999999996,1.220703,0.7324219,-0.5493163999999999,-120.0421,1.219482,-1.186523,-14.95,-8.158334,0.9166667,1
42539,-0.015136720000000001,-0.875,-0.4545898,7.629395,2.13623,0.42724609999999996,-118.8446,1.142578,-1.658936,-15.025,-7.4,0.5833332999999999,1
42749,-0.02050781,-0.8837891,-0.4453125,3.173828,-2.746582,0.9765625,-118.0151,1.620483,-1.433716,-15.06667,-7.491667,0.31666669999999997,1
42959,-0.03417969,-0.8789062999999999,-0.4145508,-1.281738,-2.685547,0.42724609999999996,-117.5812,2.131348,-1.279907,7.041667,-10.79167,81.40833,1
43199,-0.02441406,-0.8930663999999999,-0.4462891,1.89209,2.197266,-2.075195,-117.6251,1.746826,-1.329346,-15.15,-7.333333,0.05,1
43439,-0.01660156,-0.8833008,-0.41943359999999996,1.220703,-1.098633,-1.220703,-117.4109,1.499634,-1.021729,-15.10833,-7.3,-0.06666667,1
43669,-0.020996090000000002,-0.8876953,-0.4375,0.24414059999999999,0.6713867,-0.12207029999999999,-117.5317,1.549072,-1.060181,-15.19167,-7.425,-0.025,1
43970,-0.015625,-0.8891602,-0.4365234,1.281738,-0.9765625,0.3662109,-117.4384,1.593018,-0.7250977,-15.03333,-7.075,0.03333333,1
44180,0.0,-0.8901367,-0.44189449999999997,-2.258301,1.281738,-2.319336,-117.7295,0.9008788999999999,-0.9173583999999999,6.033333,-11.325,81.24167,1
44459,-0.002929688,-0.8828125,-0.45019529999999996,-1.220703,-0.793457,0.9765625,-118.3118,0.6536865,-1.115112,5.875,-11.675,81.34167,1
44759,-0.005859375,-0.8769530999999999,-0.4448242,-0.42724609999999996,-0.6103516,0.793457,-118.4271,0.8734130999999999,-0.9887695,-15.01667,-7.658333,-0.03333333,1
44999,-0.009277344,-0.8789062999999999,-0.4472656,-0.6713867,-0.1831055,0.0,-118.5315,1.010742,-0.9118651999999999,6.1,-11.70833,81.5,1
45279,-0.008789063,-0.8769530999999999,-0.4541016,-0.5493163999999999,0.06103516,0.1831055,-118.7512,0.9832763999999999,-0.8734130999999999,6.1,-11.85833,81.7,1
45579,-0.008789063,-0.8764647999999999,-0.45166019999999996,-0.12207029999999999,0.0,0.1831055,-118.7622,0.9887695,-0.8679199,-14.95833,-7.7,-0.008333334000000001,1
45829,-0.008300781,-0.8759766,-0.45166019999999996,-0.06103516,-0.12207029999999999,0.12207029999999999,-118.7622,0.9942626999999999,-0.8569336,-14.95,-7.691667,-0.025,1
46099,-0.0078125,-0.8759766,-0.4545898,-0.06103516,0.3051758,0.0,-118.7897,0.9448242,-0.8843994,-14.95,-7.816667,-0.25,1
46469,-0.01660156,-0.8725586,-0.4472656,-0.12207029999999999,-0.9155272999999999,1.6479489999999999,-118.8831,1.186523,-0.8679199,6.358333,-11.70833,82.15833,1
46699,-0.01904297,-0.8754883,-0.45166019999999996,0.9765625,-2.258301,-0.42724609999999996,-118.7292,1.373291,-0.7965088,-14.95833,-7.5,-0.025,1
46979,-0.02001953,-0.8774413999999999,-0.4541016,-0.4882813,0.0,0.5493163999999999,-118.6908,1.5271000000000001,-0.4504395,-14.98333,-7.758333,0.03333333,1
47189,-0.02001953,-0.8769530999999999,-0.4487305,0.6103516,0.24414059999999999,0.0,-118.6194,1.620483,-0.3131104,6.791667,-11.53333,81.90833,1
47429,-0.01953125,-0.8784179999999999,-0.4492188,-0.1831055,-0.24414059999999999,0.0,-118.6139,1.620483,-0.2636719,-14.98333,-7.7,-0.09166667,1
47690,-0.02050781,-0.8764647999999999,-0.4570313,-2.197266,0.5493163999999999,0.0,-119.0588,1.516113,-0.37353519999999996,6.675,-11.78333,82.325,1
47949,-0.015136720000000001,-0.8730469,-0.4628906,0.0,0.1831055,-0.06103516,-119.2731,1.417236,-0.37353519999999996,-14.93333,-7.883333,0.2,1
48200,-0.017089840000000002,-0.8764647999999999,-0.45751949999999997,0.6103516,0.5493163999999999,-0.06103516,-119.0204,1.356812,-0.20324709999999999,6.366667,-11.7,81.88333,1
48509,-0.008300781,-0.8730469,-0.4482422,-1.220703,-0.793457,-0.1831055,-119.0259,1.153564,0.09887695,-14.90833,-7.883333,-0.2,1
48809,-0.01025391,-0.871582,-0.4624023,-0.24414059999999999,0.12207029999999999,0.12207029999999999,-119.3665,1.098633,0.1208496,6.358333,-12.33333,82.48333,1
49119,-0.01025391,-0.8710937999999999,-0.4619141,0.0,0.1831055,0.1831055,-119.3884,1.142578,0.1483154,6.325,-12.21667,82.53333,1
49379,-0.01220703,-0.871582,-0.4628906,0.06103516,0.12207029999999999,0.06103516,-119.4049,1.131592,0.1812744,-14.85,-7.866667,0.008333334000000001,1
49619,-0.01171875,-0.8710937999999999,-0.4633789,0.3051758,-0.24414059999999999,0.0,-119.3665,1.120605,0.24719239999999998,6.525,-12.23333,82.50833,1
49929,-0.02001953,-0.8696288999999999,-0.4335938,0.4882813,0.6103516,0.3662109,-118.7128,1.257935,0.18676759999999998,-14.88333,-7.666667,-0.5916667,1
51329,-0.01464844,-0.8769530999999999,-0.4545898,4.211426,0.4882813,0.24414059999999999,-118.8226,1.115112,0.4119873,-14.991670000000001,-7.658333,0.44166669999999997,1
51639,-0.008300781,-0.8754883,-0.4536133,-1.281738,-0.12207029999999999,-0.4882813,-118.5095,1.049194,0.4779053,6.3,-11.71667,82.05,1
51939,-0.009765625,-0.8754883,-0.45068359999999996,-1.037598,-0.24414059999999999,0.06103516,-118.7842,1.032715,0.5438232,6.375,-11.96667,82.275,1
52249,-0.01611328,-0.871582,-0.4682617,0.0,1.464844,0.4882813,-119.5313,1.07666,0.4833984,-14.83333,-7.966667,-0.2083333,1
52489,-0.008789063,-0.8701171999999999,-0.4692383,-1.098633,-0.8544921999999999,-0.42724609999999996,-119.7235,1.082153,0.6207275,-14.81667,-7.983333,-0.08333334,1
52700,-0.007324219000000001,-0.8681641,-0.46728519999999996,0.6713867,-0.7324219,-1.098633,-119.729,1.054688,0.8074950999999999,6.416667,-12.50833,82.86667,1
52949,-0.007324219000000001,-0.8696288999999999,-0.4614258,-0.06103516,-0.6103516,-0.8544921999999999,-119.5642,0.9173583999999999,0.8789062999999999,-14.866670000000001,-8.008333,-0.075,1
53209,-0.005371094000000001,-0.8696288999999999,-0.4638672,0.793457,1.220703,-0.3662109,-119.5752,0.7690429999999999,0.8953857,-14.85,-7.908333,0.03333333,1
53429,-0.004394531,-0.871582,-0.4628906,-0.3662109,-0.6713867,-0.12207029999999999,-119.5038,0.6976317999999999,0.9063721,-14.875,-7.95,-0.1333333,1
53649,-0.0078125,-0.8657227,-0.46728519999999996,-1.586914,0.06103516,-0.06103516,-119.8169,0.703125,0.9503174,6.225,-12.76667,82.88333,1
53889,-0.004882813000000001,-0.8657227,-0.4692383,0.12207029999999999,0.42724609999999996,0.4882813,-119.9817,0.7250977,1.027222,-14.78333,-8.075,-0.01666667,1
54139,-0.00390625,-0.8637695,-0.47509769999999996,-1.281738,0.3662109,0.3662109,-120.1355,0.7745361,1.054688,-14.8,-8.216666,-0.09166667,1
54440,-0.006347656,-0.8642578,-0.4707031,0.24414059999999999,-0.1831055,0.24414059999999999,-120.1959,0.8239746,1.104126,6.258333,-12.75833,83.05833,1
54740,-0.008300781,-0.8657227,-0.4755859,-0.12207029999999999,0.0,0.0,-120.2069,0.7745361,1.071167,6.208333,-12.81667,82.89167,1
55009,-0.006347656,-0.8637695,-0.47509769999999996,0.06103516,-0.24414059999999999,0.0,-120.2069,0.7690429999999999,1.104126,-14.741670000000001,-8.108334,-0.01666667,1
55259,-0.0078125,-0.8642578,-0.4790039,-0.793457,-0.24414059999999999,0.0,-120.2838,0.7855225,1.153564,6.233333,-12.825,82.96667,1
55569,-0.0078125,-0.8642578,-0.47460939999999996,-0.1831055,-0.42724609999999996,0.06103516,-120.2893,0.7690429999999999,1.09314,-14.75833,-8.116667,-0.025,1
55869,-0.005371094000000001,-0.8627929999999999,-0.4790039,0.12207029999999999,0.3051758,0.3051758,-120.3223,0.7470703,1.071167,6.15,-12.75,82.81667,1
56169,-0.01416016,-0.8598633,-0.45898439999999996,-0.12207029999999999,-1.281738,0.793457,-120.163,0.7525634999999999,1.060181,6.233333,-12.83333,82.8,1
56479,-0.01074219,-0.8696288999999999,-0.4697266,3.173828,2.075195,0.0,-119.9652,0.7855225,0.8184813999999999,-14.85833,-8.075,0.2583333,1
56719,-0.015625,-0.8671875,-0.45117189999999996,0.4882813,-0.6103516,1.281738,-119.5203,0.8789062999999999,0.8514404,-14.84167,-8.0,-0.075,1
56920,-0.007324219000000001,-0.8701171999999999,-0.4643555,-0.6713867,0.793457,0.0,-119.6191,0.8953857,0.8459473,-14.80833,-7.95,-0.1166667,1
57109,-0.009765625,-0.8696288999999999,-0.4682617,-0.8544921999999999,-0.24414059999999999,-0.1831055,-119.7839,0.8679199,0.8843994,-14.83333,-8.05,-0.075,1
57329,-0.0078125,-0.8681641,-0.4711914,-0.12207029999999999,0.1831055,0.0,-119.8828,0.8239746,0.9338379,-14.8,-8.016666,0.008333334000000001,1
57539,-0.008789063,-0.8686522999999999,-0.4711914,0.12207029999999999,0.0,0.0,-119.8663,0.8294678,0.9667969,-14.81667,-8.05,0.03333333,1
57769,-0.0078125,-0.8671875,-0.46875000000000006,-0.1831055,-0.06103516,0.0,-119.8389,0.8294678,1.021729,-14.79167,-8.041667,-0.05,1
58099,-0.008789063,-0.8662109,-0.4702148,-0.06103516,0.0,0.0,-119.8993,0.8074950999999999,1.032715,-14.80833,-8.05,-0.008333334000000001,1
58369,-0.01025391,-0.8671875,-0.4697266,0.12207029999999999,0.06103516,0.0,-119.8828,0.7855225,1.038208,-14.79167,-8.008333,0.0,1
58679,-0.009277344,-0.8691405999999999,-0.4707031,-0.4882813,-0.24414059999999999,0.0,-119.8883,0.7690429999999999,1.043701,6.233333,-12.51667,82.89167,1
58989,-0.009765625,-0.8681641,-0.4648438,0.7324219,-0.06103516,-0.12207029999999999,-119.7235,0.8129883,0.9887695,6.341667,-12.34167,82.61667,1
59249,-0.009277344,-0.8676758,-0.4643555,-1.037598,0.3051758,-0.4882813,-119.8169,0.7580566,0.9997558999999999,-14.825,-8.158334,-0.06666667,1
59489,-0.009277344,-0.8671875,-0.4604492,3.112793,0.6103516,0.12207029999999999,-119.4818,0.703125,1.049194,6.083333,-12.26667,82.05833,1
59799,-0.008789063,-0.8706054999999999,-0.46582029999999996,-1.708984,0.3051758,0.3051758,-119.4049,0.703125,1.142578,-14.85833,-7.95,-0.24166669999999998,1
60109,-0.0078125,-0.8686522999999999,-0.4697266,-0.7324219,0.0,0.06103516,-119.8059,0.7525634999999999,1.203003,-14.83333,-8.066667,-0.025,1
60409,-0.008300781,-0.8686522999999999,-0.4707031,-0.1831055,0.0,0.0,-119.8608,0.7470703,1.230469,-14.81667,-8.058333,0.025,1
60779,-0.008300781,-0.8696288999999999,-0.4648438,0.793457,0.1831055,0.0,-119.6686,0.7470703,1.307373,-14.84167,-7.983333,0.1416667,1
61079,-0.011230470000000001,-0.8706054999999999,-0.4609375,0.6713867,-0.24414059999999999,0.12207029999999999,-119.4653,0.7800292999999999,1.312866,-14.866670000000001,-7.925,0.025,1
61290,-0.009765625,-0.871582,-0.4614258,-0.3662109,0.0,0.0,-119.4159,0.8129883,1.345825,6.216667,-12.20833,82.13333,1
61529,-0.007324219000000001,-0.8735352,-0.46630859999999996,-0.5493163999999999,1.159668,0.0,-119.5422,0.7910155999999999,1.3348389999999999,-14.85833,-7.983333,-0.1,1
61769,-0.01025391,-0.8701171999999999,-0.4648438,-1.281738,-0.7324219,0.1831055,-119.6686,0.8184813999999999,1.307373,-14.825,-7.991667,-0.15,1
61979,-0.01074219,-0.8671875,-0.4707031,-0.12207029999999999,0.24414059999999999,-0.12207029999999999,-119.8608,0.8294678,1.417236,6.325,-12.375,82.44167,1
62229,-0.008300781,-0.8671875,-0.46875000000000006,0.06103516,-0.12207029999999999,0.0,-119.8499,0.802002,1.461182,-14.80833,-7.975,-0.008333334000000001,1
62510,-0.008789063,-0.8676758,-0.4711914,-0.3051758,0.0,0.0,-119.8773,0.802002,1.5051269999999999,6.358333,-12.4,82.31667,1
62789,-0.008789063,-0.8662109,-0.4775391,-2.258301,0.12207029999999999,0.0,-120.3223,0.8129883,1.587524,6.183333,-12.68333,82.93333,1
63079,-0.011230470000000001,-0.8652344,-0.4790039,2.685547,0.0,0.3662109,-120.1849,0.8184813999999999,1.549072,-14.75833,-7.925,0.30000000000000004,1
63329,-0.01220703,-0.8686522999999999,-0.4541016,4.699707,0.5493163999999999,0.793457,-119.0918,0.8184813999999999,1.483154,6.3,-11.991670000000001,81.75,1
63609,-0.006347656,-0.8808594,-0.4638672,4.333496,0.8544921999999999,0.3051758,-118.5535,0.6921387,1.450195,6.05,-11.61667,81.375,1
63909,-0.005371094000000001,-0.8823242,-0.43457029999999996,2.13623,1.6479489999999999,-0.42724609999999996,-117.8723,0.637207,1.345825,-15.09167,-7.366667,0.15,1
64149,-0.005371094000000001,-0.8818359,-0.4248047,-3.417969,-0.6103516,-0.8544921999999999,-117.9218,0.46691889999999997,1.3348389999999999,-15.08333,-7.716667,-0.49166669999999996,1
64589,-0.004882813000000001,-0.8759766,-0.4467773,-2.13623,-0.8544921999999999,0.0,-119.0588,0.5163574,1.6149900000000001,-14.88333,-8.108334,-0.36666669999999996,1
64849,-0.0078125,-0.8681641,-0.45849609999999996,-0.12207029999999999,-0.24414059999999999,0.0,-119.4489,0.7305908,1.697388,-14.83333,-7.866667,-0.1,1
65149,-0.009765625,-0.8691405999999999,-0.46679689999999996,-0.4882813,0.1831055,0.06103516,-119.5532,0.7525634999999999,1.7248539999999999,-14.85833,-7.941667,-0.075,1
65499,-0.0034179690000000003,-0.8676758,-0.4643555,0.12207029999999999,1.6479489999999999,0.8544921999999999,-119.6356,0.6921387,1.521606,-14.81667,-7.891667,-0.1083333,1
65709,-0.006835938000000001,-0.8681641,-0.4702148,-0.8544921999999999,2.01416,1.342773,-119.7729,0.6921387,1.170044,-15.18333,-8.666667,-0.1666667,1
65909,-0.01757813,-0.8828125,-0.5024413999999999,11.47461,4.211426,-1.159668,-119.361,0.5108642999999999,0.5328369,-15.28333,-7.741667,3.025,1
66119,0.04296875,-0.9243163999999999,-0.4414063,46.08154,17.94434,-0.5493163999999999,-114.3567,-0.1757813,-0.5932617,-18.26667,-8.866667,9.5,1
66329,-0.02441406,-1.050293,-0.046875,28.80859,7.751465,-8.789063,-94.61975,-1.329346,-3.120117,3.558333,-3.158333,62.825,1
66579,0.08105469,-0.9775391,-0.09521484000000001,-19.47021,-5.065918,-4.150391,-95.00977,-2.680664,-2.598267,-15.425,-2.316667,-4.525,1
66829,0.01904297,-0.8666992,-0.09619141,8.239746,-5.554199,6.652832,-101.5027,-3.186035,-3.098145,-13.83333,-2.225,-0.47500000000000003,1
68269,0.06787109,-0.871582,-0.1875,-4.211426,-0.9765625,-10.62012,-105.9027,-1.911621,16.243290000000002,-15.45833,-4.625,1.758333,1
68529,0.1552734,-0.8779296999999999,-0.27001949999999997,16.8457,-27.03857,11.84082,-104.3207,-0.1702881,20.20935,-15.43333,-4.266667,0.8416665999999999,1
68750,-0.1518555,-1.200195,-0.08886719,-2.746582,-31.98242,-20.08057,-104.6887,4.163818,24.25232,15.65833,-5.983333,82.48333,1
69059,-0.09667969,-0.9379883,-0.18994139999999998,9.82666,-84.53369,-15.44189,-101.7938,5.317383,39.72656,-14.35,-4.858333,1.183333,1
69350,0.0,-1.246582,-0.2382813,-23.62061,-62.92725,-30.51758,-103.7878,1.219482,60.87524,31.36667,-8.966666,92.475,1
69649,-0.01855469,-0.8911133,-0.2124023,-0.6713867,-17.27295,-14.89258,-105.1172,-0.9887695,70.88379,-15.725,-4.558333,1.725,1
69959,0.137207,-0.9799804999999999,-0.4257813,-11.2915,-0.5493163999999999,13.73291,-102.7167,1.664429,77.59094,41.70833,-9.233334,91.01667,1
70279,-0.1342773,-0.9179687999999999,-0.08789063,-3.417969,-29.54102,7.69043,-103.7219,2.131348,79.28284,-14.35833,-3.216667,0.05833333,1
70609,-0.1171875,-0.921875,-0.1674805,-10.49805,-0.06103516,-28.74756,-103.255,1.768799,87.33582,-19.08333,-7.75,-0.975,1
70909,0.3232422,-0.9375,-0.175293,-1.403809,26.67236,-7.568359,-106.5399,0.7745361,90.60974,-14.88333,-4.708333,0.44166669999999997,1
71150,-0.005371094000000001,-0.9624022999999999,-0.2519531,13.97705,-20.87402,23.86475,-103.3044,1.94458,86.39099,45.78333,-8.733334,87.41666,1
71389,-0.503418,-1.168457,0.06689453000000001,1.098633,-24.4751,-35.03418,-104.4635,2.845459,86.71509,-24.54167,-5.658333,-1.275,1
71629,-0.1757813,-0.7802734,-0.11083979999999999,-13.85498,-32.04346,10.92529,-104.7766,1.576538,90.42847,-14.03333,-4.466667,0.75,1
71849,-0.09277344,-0.8071288999999999,-0.3520508,17.57813,-1.037598,-15.19775,-105.0732,2.444458,94.88342,-16.23333,-10.24167,-6.216667,1
72059,0.1386719,-1.174316,-0.23291019999999998,22.2168,19.9585,-24.41406,-106.1224,1.669922,98.2782,48.25,-9.875,90.73333,1
72329,0.03564453,-0.8271484,-0.2797852,17.7002,1.7700200000000001,13.30566,-104.881,-1.170044,93.82874,-16.09167,-3.358333,1.791667,1
72579,0.21289059999999999,-1.01709,-0.5668945,-29.41895,7.629395,10.19287,-104.7382,2.719116,94.43298,-14.625,1.5833329999999999,-0.975,1
72789,-0.1044922,-0.7944336,-0.1079102,8.422852,-12.39014,12.75635,-104.3317,1.906128,93.96057,47.96667,-9.475,92.18333,1
73079,-0.2661133,-1.267578,-0.5991211,-29.84619,-29.23584,-11.04736,-106.1115,-0.8074950999999999,94.82849,46.01667,-8.841666,92.04166,1
73339,0.24462889999999998,-1.074219,-0.16650389999999998,-2.624512,23.49854,-10.55908,-104.6503,0.1647949,96.90491,-13.475,-2.733333,0.7166667,1
73589,0.03759766,-0.9628905999999999,-0.22900389999999998,2.380371,4.150391,32.16553,-103.4912,1.807251,93.57056,46.9,-9.083333,91.48333,1
73879,-0.1479492,-0.9077147999999999,-0.1557617,-3.2958979999999998,-21.11816,9.58252,-105.5621,0.19226069999999998,91.6864,-12.66667,-2.758333,0.24166669999999998,1
74199,-0.1030273,-0.9375,-0.2583008,-13.00049,2.929688,-29.60205,-104.9744,-0.6591796999999999,95.72388,45.46667,-10.49167,93.175,1
74509,0.1635742,-0.7832030999999999,-0.15478519999999998,-2.868652,39.30664,-5.187988,-106.2817,-0.4504395,95.0647,-13.475,-4.791667,2.591667,1
74839,0.23339839999999998,-0.9697266,-0.6035155999999999,-33.56934,-1.8310549999999999,7.019043,-105.4358,2.455444,91.69189,-15.96667,2.766667,1.525,1
75149,-0.1376953,-0.7856445,-0.1689453,-12.146,-25.45166,7.324219,-106.7542,1.263428,91.07117,-12.866670000000001,-5.416667,1.116667,1
75380,-0.10644529999999999,-1.370605,-0.6845703,-21.30127,-48.0957,-26.42822,-109.3634,-1.494141,96.27319,45.95,-10.20833,92.075,1
75629,0.2475586,-0.8720703,-0.16601559999999999,0.6103516,36.25488,-9.033203,-105.8148,-0.2911377,97.41028,-13.11667,-3.8083329999999997,0.6583333,1
75869,-0.07470703000000001,-0.7158203,-0.36425779999999996,28.62549,8.972168,23.86475,-104.3866,-0.5383300999999999,91.64795,-17.38333,-4.416667,1.041667,1
76090,-0.02734375,-1.356934,-0.2114258,-13.61084,29.54102,-30.63965,-105.271,0.24719239999999998,91.50513,45.28333,-8.941667,92.00833,1
76319,-0.052734380000000004,-0.6787109,-0.22900389999999998,0.9765625,-11.65771,3.112793,-106.4355,2.329102,92.74658,-13.225,-6.241667,3.125,1
76599,-0.1987305,-0.9912109,-0.7285155999999999,-77.63672,7.385254,1.220703,-108.1219,-1.032715,93.74084,-11.075,0.05833333,-11.36667,1
76820,0.05957031,-0.6928711,-0.1728516,0.1831055,36.62109,0.3662109,-106.4355,-0.7855225,92.09839,44.25,-9.516666,94.025,1
77090,-0.20214839999999998,-1.575195,0.03955078,9.887695,16.60156,2.624512,-107.1881,3.317871,87.2699,45.41667,-9.825,94.05833,1
77399,-0.121582,-0.8422852,-0.1811523,-14.22119,-39.0625,8.728026999999999,-107.254,0.9228516,89.81323,-11.525,-3.216667,1.716667,1
77639,-0.1728516,-0.9243163999999999,-0.6469727,-59.26514,1.7700200000000001,-3.967285,-107.3309,-0.5932617,95.09216,-9.433333,2.533333,2.666667,1
77909,0.03710938,-0.7895508,-0.14697269999999998,-4.455566,27.64893,-1.159668,-107.5232,-0.5767822,94.64172,45.8,-10.25833,94.23333,1
78179,0.08105469,-1.000488,-0.2304688,11.71875,2.807617,37.10938,-104.8425,2.246704,91.94458,-22.65833,-6.741667,-2.666667,1
78449,-0.1987305,-0.8637695,-0.1386719,-0.9765625,-35.15625,10.98633,-107.4957,0.5108642999999999,91.40625,-13.49167,-3.191667,0.31666669999999997,1
78729,-0.028808590000000002,-0.9853516,-0.2993164,-19.16504,2.685547,-22.88818,-105.705,-0.34606929999999997,95.82825,46.63334,-9.85,92.425,1
79010,0.08886719,-0.7407227,-0.1293945,-6.896973,28.44238,-8.178711,-106.7157,-0.28564449999999997,96.59729,46.45833,-9.85,92.93333,1
79310,0.2436523,-1.045898,-0.6577147999999999,-39.79492,-7.141113,-14.70947,-107.0288,2.543335,93.98804,48.00834,-10.425,92.26667,1
79649,-0.07080078000000001,-0.6987304999999999,-0.1259766,-1.953125,-0.1831055,16.72363,-108.1934,0.6866455,95.27344,47.40833,-11.19167,93.25,1
79889,-0.1611328,-0.9418945,-0.2182617,3.051758,11.47461,-26.55029,-106.7871,-1.137085,95.03174,-27.35833,-0.2916667,7.558333,1
80099,-0.1762695,-1.699707,-0.35693359999999996,7.141113,-11.1084,16.11328,-109.303,2.021484,95.41626,-13.28333,-3.058333,-1.033333,1
80309,-0.0034179690000000003,-0.8222655999999999,-0.2983398,13.79395,-13.97705,31.37207,-106.7212,1.620483,89.12109,45.05,-9.775,92.3,1
80549,-0.046875,-0.8168945,-0.01855469,-34.17969,-12.75635,-51.75781,-107.8583,0.46691889999999997,89.95605,-15.06667,-2.833333,0.5666667,1
80829,-0.08007813,-0.6621094,-0.19775389999999998,0.3051758,-29.41895,12.75635,-108.1989,2.015991,92.68066,-11.675,-5.741667,4.775,1
81050,0.8989258,-0.9916992,0.3198242,78.36914,-49.56055,4.577637,-106.6992,0.1647949,99.51965,48.90833,-10.05,91.56667,1
81329,-0.01269531,-0.7167969,-0.3134766,23.31543,14.5874,19.40918,-106.9739,-0.4888916,93.11462,45.64167,-9.158334,91.6,1
81619,-0.08642578000000001,-1.371094,-0.40380859999999996,-18.12744,24.53613,10.98633,-109.0448,3.411255,91.17004,-21.80833,-2.966667,-4.541667,1
81869,-0.03613281,-0.6176758,-0.2324219,7.995605,-39.18457,-1.6479489999999999,-108.891,2.576294,96.71265,-13.325,-5.1,2.675,1
82139,0.5092772999999999,-0.53125,0.1357422,30.39551,23.19336,23.13232,-106.9189,-0.054931640000000004,102.2717,49.85,-9.991667,90.73333,1
82409,0.04248047,-0.5981445,-0.1054688,1.525879,44.86084,-0.1831055,-108.3911,-0.7690429999999999,95.72937,-11.54167,-6.6,2.375,1
82679,-0.2387695,-1.302734,0.04003906,17.76123,17.02881,4.089355,-109.4403,2.686157,92.20276,-29.88333,-7.541667,-3.716667,1
82959,-0.009277344,-0.6635742,-0.3442383,10.31494,-13.18359,-4.821777,-109.4897,1.713867,98.40454,48.49166,-10.76667,92.6,1
83240,-0.1118164,-1.302734,-0.3598633,-4.089355,-17.76123,35.03418,-109.0668,0.4229736,99.19556,48.04167,-10.09167,91.14167,1
83540,-0.001953125,-0.7114258,-0.2670898,24.16992,9.277344,31.37207,-104.837,0.33508299999999996,90.37354,44.16667,-8.541667,90.63333,1
83879,-0.12695309999999999,-0.8579102,-0.159668,4.02832,-12.51221,4.882813,-107.1332,-0.8569336,88.35205,42.86666,-10.84167,93.60833,1
85219,-0.07324219,-1.032715,-0.2758789,4.272461,16.54053,-30.70068,-107.7429,-0.2416992,93.93311,-25.94167,0.008333334000000001,3.658333,1
85469,0.1416016,-0.7749022999999999,-0.1616211,-7.873535,36.13281,-5.065918,-108.7976,0.6536865,95.07568,44.56667,-11.76667,91.29166,1
85749,-0.02929688,-0.6831054999999999,-0.2504883,29.35791,-18.73779,33.38623,-106.2708,1.708374,91.6864,-18.225,-12.45,-6.283333,1
85940,-0.3110352,-0.9282227,-0.1230469,8.056641,-26.79443,10.25391,-108.5724,-0.7415771,91.77979,43.375,-11.075,91.44167,1
86179,-0.01464844,-0.6289062999999999,-0.3286133,22.94922,-26.61133,-25.93994,-108.2043,1.6149900000000001,100.0305,-16.79167,-6.733333,-5.916667,1
86459,0.3037109,-1.370117,0.09472656,81.4209,-34.5459,4.089355,-110.6104,-0.5108642999999999,104.079,-27.10833,-6.083333,1.466667,1
86680,0.12695309999999999,-0.7392578,-0.1889648,-5.126953,51.63574,-2.441406,-109.5172,-0.4284668,98.86597,-11.76667,-5.55,1.7083329999999999,1
86889,0.37255859999999996,-1.113281,-0.7568359,-35.52246,8.361816,7.995605,-109.0997,2.565308,91.73035,45.03333,-11.94167,92.45834,1
87129,-0.08203125,-1.025391,-0.22851559999999999,22.82715,-34.24072,4.394531,-108.3911,-1.323853,91.65344,-12.45833,-3.0,-0.6166667,1
87379,-0.1357422,-1.008301,-0.27050779999999996,-5.004883,-3.967285,-36.25488,-106.9904,-1.219482,99.14063,-31.70833,0.5,7.291667,1
87680,0.09912109000000001,-0.7802734,-0.1484375,-10.00977,38.33008,0.8544921999999999,-107.5397,-0.4229736,96.88293,44.54167,-11.06667,91.175,1
87999,0.1289063,-1.048828,-0.6396484,-34.91211,-4.943848,-4.02832,-107.688,2.197266,88.76953,-9.675,2.233333,0.5666667,1
88309,-0.08007813,-0.684082,-0.18603519999999998,-8.728026999999999,-22.58301,13.3667,-108.9624,1.593018,92.30164,-10.24167,-6.591667,2.058333,1
88589,0.5166016,-1.324707,0.36425779999999996,106.2622,-54.56543,-0.6713867,-108.9569,-0.5383300999999999,99.08569,45.78333,-11.75,90.14167,1
88869,0.09423828000000001,-0.6972655999999999,-0.1489258,-13.18359,38.81836,-2.624512,-108.8141,0.054931640000000004,95.58655,-12.25,-6.358333,2.941667,1
89109,-0.1791992,-1.249512,-0.2929688,-9.94873,30.33447,20.32471,-109.9622,3.158569,91.89514,44.15,-12.34167,90.85,1
89449,-0.03710938,-0.5673828,-0.21435549999999998,20.99609,-39.00146,-0.42724609999999996,-108.089,1.235962,95.81177,-12.5,-3.116667,4.166667,1
89690,-0.011230470000000001,-1.503906,-0.2387695,-21.11816,-13.00049,20.1416,-110.0446,0.6317138999999999,100.6293,46.28333,-12.45,90.01667,1
89929,0.02197266,-0.6132812999999999,-0.1806641,1.89209,29.23584,2.563477,-108.3801,-1.312866,95.77881000000001,-11.90833,-6.166667,3.883333,1
90170,-0.2246094,-0.6787109,-0.07275391,15.07568,-11.71875,-30.0293,-108.5284,1.208496,91.91162,42.7,-12.175,90.79166,1
90409,-0.12255859999999999,-0.6464844,-0.08789063,4.089355,-30.63965,19.22607,-108.0011,1.428223,95.20203,-10.475,-5.85,0.975,1
90699,-0.08251953000000001,-1.11377,-0.2885742,-11.41357,-5.065918,-37.65869,-108.0341,-0.2966309,98.74512,-31.525,-2.966667,4.233333,1
90909,0.01464844,-1.327148,-0.25488279999999996,4.394531,8.544922,32.53174,-109.4623,0.8953857,98.43201,-12.75833,-2.75,-0.1333333,1
91129,0.02832031,-0.7075195,-0.34130859999999996,23.25439,-11.41357,28.44238,-108.5779,0.32409669999999996,92.27966,-19.59167,-12.79167,-5.816667,1
91400,-0.02001953,-1.146484,-0.25537109999999996,21.91162,-12.39014,5.859375,-108.9294,-1.774292,89.82971,39.69167,-12.73333,92.675,1
91679,-0.03759766,-0.5952147999999999,-0.39648439999999996,21.1792,-29.78516,-18.49365,-108.4131,1.252441,95.10315,-17.30833,-3.425,-0.5,1
91919,-0.22900389999999998,-1.405762,-0.31738279999999996,-21.91162,0.24414059999999999,46.75293,-110.0226,0.9613037,98.54187,44.69167,-12.93333,91.71667,1
92229,-0.01416016,-0.671875,-0.19042969999999998,30.70068,10.19287,19.34814,-106.3367,0.1483154,88.69263,-20.975,-10.64167,-1.625,1
92549,-0.07470703000000001,-0.9687500000000001,-0.17871089999999998,-0.9155272999999999,-39.18457,7.446289,-106.9904,-0.3076172,88.40698,-10.8,-2.608333,-0.725,1
92829,0.0546875,-1.097168,-0.45751949999999997,-31.67725,1.586914,-16.72363,-107.8308,-0.5548096,95.17456,41.98333,-13.225,92.80833,1
93110,0.06103516,-0.6733397999999999,-0.1567383,-4.638672,35.09521,-7.324219,-107.7319,-0.44494629999999996,92.26868,40.10833,-12.975,93.01667,1
93410,0.2226563,-1.265625,-0.7792969,-42.90771,20.99609,7.873535,-109.3689,2.774048,90.03845,41.61666,-13.525,93.23333,1
93749,-0.07519531,-0.7202147999999999,-0.20996089999999998,-2.929688,-32.10449,3.845215,-108.4296,1.790771,94.31213,43.74166,-13.175,92.225,1
93979,0.03955078,-1.115723,-0.5483397999999999,-39.55078,6.713867,-4.760742,-108.7921,-1.175537,97.64099,-9.441667,3.691667,8.775,1
94199,0.04394531,-1.17041,-0.2753906,13.85498,26.06201,-13.79395,-109.4952,0.8074950999999999,98.08594,-10.76667,-2.516667,-1.266667,1
94409,0.11669919999999999,-1.005859,-0.30224609999999996,6.04248,12.3291,33.99658,-109.1492,1.203003,92.34009,40.95,-13.39167,93.875,1
94649,-0.21289059999999999,-0.8413086,0.01464844,-19.04297,15.19775,-30.94482,-110.1654,0.49438479999999996,88.6377,-15.94167,-3.725,-0.2833333,1
94919,-0.020996090000000002,-0.7714844,-0.22167969999999998,2.197266,-27.28271,7.324219,-109.4897,1.279907,91.87866,-11.075,-6.375,2.516667,1
95139,-0.1015625,-1.020996,-0.4077148,-14.46533,6.9580079999999995,-19.89746,-108.5284,-1.812744,94.66919,-25.65,1.208333,8.316667,1
95359,0.11669919999999999,-0.8032227,-0.20166019999999998,-10.25391,24.16992,-4.760742,-108.9679,-1.060181,95.31189,-13.21667,-4.625,2.241667,1
95630,0.1831055,-0.9472655999999999,-0.5722655999999999,-28.19824,3.173828,2.807617,-108.0835,2.39502,92.68066,40.64167,-13.56667,94.78333,1
95899,-0.1210938,-1.295898,-0.30273439999999996,20.32471,3.845215,-1.281738,-108.924,-1.790771,90.34607,-13.8,-3.541667,-0.9666665999999999,1
96149,-0.03808594,-0.7148437999999999,-0.29492189999999996,8.178711,48.33984,-24.23096,-108.7482,-2.021484,90.74707,34.14167,-14.69167,96.18333,1
96459,0.31054689999999996,-1.056152,-0.23291019999999998,16.54053,77.94189,23.98682,-111.7969,-2.741089,77.42615,-15.68333,-5.1,1.891667,1
96779,0.06542969,-0.8330078,-0.2724609,-16.90674,98.81592,41.3208,-104.425,-5.08667,42.77527,-20.84167,-1.8666669999999999,0.4333333,1
97049,-0.1640625,-0.8105469,-0.3110352,-22.27783,91.06445,53.16162,-107.3639,-1.851196,4.575806,3.158333,-7.158333,66.125,1
97329,-0.19042969999999998,-0.8369141,-0.45800779999999996,15.13672,110.2295,19.04297,-105.9357,-1.741333,-16.9519,-14.84167,-8.641666,-0.25,1
97579,0.052734380000000004,-1.024902,-0.3134766,15.19775,74.70703,26.67236,-101.8323,-2.779541,-46.25793,-15.14167,-3.816667,0.44166669999999997,1
97879,-0.10107419999999999,-0.8037109,-0.37304689999999996,-4.02832,33.69141,15.80811,-100.9314,-4.3396,-66.79138,-18.36667,-10.85,-3.991667,1
98249,-0.10839839999999999,-0.6982421999999999,-0.1464844,-22.03369,8.544922,30.57861,-106.3641,2.8125,-79.28833,28.73333,4.625,33.83333,1
98519,-0.2392578,-0.996582,-0.43603519999999996,-9.399414,23.74268,-20.87402,-107.276,2.796021,-83.13354,-26.75,-2.8,-2.825,1
98759,0.06445313,-0.7270508,-0.1157227,8.239746,34.17969,-15.25879,-107.0233,1.263428,-85.83069,30.2,4.483333,33.6,1
98999,-0.02783203,-0.6967772999999999,-0.45117189999999996,16.11328,-19.83643,21.54541,-106.5729,1.329346,-87.48413,-17.95,-9.141666,-4.925,1
99239,-0.734375,-1.05957,0.048828130000000004,29.60205,-3.601074,-40.71045,-107.8198,3.570557,-88.25317,-21.38333,-4.783333,0.875,1
99459,-0.08203125,-0.6782227,-0.4291992,18.79883,-6.9580079999999995,-12.81738,-108.1055,5.141602,-80.95825,29.79167,4.291667,34.05,1
99739,0.3344727,-1.972656,-0.1577148,28.25928,-31.25,10.25391,-111.286,1.999512,-79.68384,-24.55,-4.925,-1.391667,1
99980,-0.05175781,-0.6542969,-0.30273439999999996,5.92041,20.62988,6.225586,-108.9075,0.6646729,-88.24219,31.35,3.516667,33.14167,1
100259,-0.4467773,-0.6420897999999999,0.2275391,37.41455,-14.77051,-52.24609,-108.9349,3.652954,-90.29114,32.925,3.45,33.70833,1
100559,-0.0703125,-0.668457,-0.2148438,-4.089355,-12.75635,21.66748,-111.1322,4.916382,-89.45618,-9.041667,-5.591667,5.75,1
101909,-0.08740234,-1.288086,-0.3398438,-73.48633,-42.23633,45.71533,-110.0281,8.415527,-74.52026,-13.96667,-2.775,-0.49166669999999996,1
102200,0.03662109,-0.7114258,-0.34082029999999996,2.868652,-16.17432,31.98242,-107.7429,6.646729,-71.9165,27.59167,3.583333,34.28333,1
102479,-0.34082029999999996,-0.9370117,-0.22119139999999998,17.82227,-3.2958979999999998,22.64404,-111.33,6.28418,-71.85608,27.00833,4.25,37.29167,1
102779,0.07617188,-0.5981445,-0.3452148,23.01025,6.04248,-30.51758,-109.4897,7.844238,-68.49426,-16.05833,-11.59167,-6.191667,1
103030,0.10498049999999999,-1.023926,-0.21875000000000003,30.39551,35.21729,-20.56885,-110.1324,7.218018,-66.62109,-10.3,-2.583333,0.4166667,1
103299,-0.03320313,-1.095703,-0.35644529999999996,-27.83203,-5.859375,17.15088,-109.8468,8.217773,-71.02661,28.33333,3.591667,36.29167,1
103610,-0.2529297,-0.828125,-0.30908199999999997,-16.23535,-35.82764,-9.765625,-113.0054,5.971069,-71.02661,26.85833,4.25,38.68333,1
103849,0.01074219,-0.8710937999999999,-0.1953125,42.84668,-18.9209,-25.87891,-109.325,6.652222,-61.1499,-17.45,-11.18333,-4.416667,1
104059,-0.13916019999999998,-1.432129,-0.3056641,-65.06348,7.141113,37.59766,-108.9349,7.207031,-61.29272,-11.7,-2.375,-1.158333,1
104279,-0.1035156,-0.7749022999999999,-0.3618164,11.1084,-4.638672,31.25,-110.3741,5.493164,-72.99866,29.08333,3.15,34.5,1
104509,-0.33349609999999996,-0.7626953,0.024902340000000002,11.04736,-0.12207029999999999,-49.31641,-111.8243,6.119385,-73.91052,-16.70833,-3.65,2.433333,1
104779,-0.06640625,-0.6865234,-0.2202148,-2.868652,-43.5791,14.64844,-113.0054,7.201538,-68.73596,-9.191667,-7.225,3.541667,1
104999,0.028808590000000002,-1.093262,-0.5776367,-28.86963,12.02393,6.103516,-111.2585,6.234741,-65.14893000000001,-8.85,-0.9833333999999999,7.275,1
105219,0.041015630000000004,-0.6679687999999999,-0.1796875,6.347656,29.66309,-22.46094,-110.3357,5.982056,-68.34045,27.29167,3.75,36.13334,1
105469,0.140625,-0.9907227,-0.2924805,8.117676,-18.67676,26.9165,-109.5667,8.21228,-68.09875,-25.83333,-5.183333,-1.341667,1
105709,-0.03613281,-0.7392578,-0.15478519999999998,-8.300781,-29.23584,7.69043,-110.3137,6.619263,-64.14368,-9.941667,-3.891667,2.441667,1
106010,-0.30273439999999996,-1.129395,-0.7709961,-79.58984,20.1416,15.07568,-111.308,6.2677,-61.41357,23.68333,4.0,36.64167,1
106319,0.020996090000000002,-0.5581054999999999,-0.1328125,-1.098633,35.52246,-1.281738,-109.314,5.163574,-66.76941,27.20833,3.691667,34.225,1
106579,-0.05517578,-1.141113,-0.4882813,-32.04346,-15.68604,-0.3051758,-109.9347,8.651733,-69.4281,-17.65833,3.891667,2.275,1
106829,-0.09228516,-0.6811522999999999,-0.15820309999999999,-12.87842,-35.70557,4.150391,-111.2146,8.442993,-63.48999,27.31667,5.091667,36.83333,1
107139,0.12207029999999999,-1.947266,-0.1567383,35.40039,-12.146,4.272461,-112.5934,6.948853,-55.9259,-22.33333,-4.966667,-1.291667,1
107439,-0.03271484,-0.6909179999999999,-0.269043,1.525879,32.53174,9.033203,-110.4291,5.723877,-62.57813,26.81667,4.691667,35.51667,1
107749,-0.5664063,-0.6479492,0.15820309999999999,32.22656,-29.54102,-48.46191,-109.27,8.080444,-67.17041,-18.9,-3.816667,2.9,1
108119,-0.1435547,-1.115234,-0.3188477,-1.8310549999999999,14.64844,-23.4375,-108.9185,7.272949,-54.28894,23.825,4.491667,37.025,1
108390,-0.19775389999999998,-1.524902,-0.3461914,-8.483887,11.59668,26.06201,-109.7809,9.387817,-54.28894,-12.09167,-2.741667,0.30000000000000004,1
108629,0.06445313,-0.8920897999999999,-0.2514648,16.54053,-21.48438,40.1001,-108.7317,8.421021,-59.12292,28.14167,4.025,34.83333,1
108869,-0.08740234,-0.5854492,0.1577148,-6.9580079999999995,-16.72363,-21.66748,-109.0778,7.89917,-59.05701,-16.03333,-2.8083329999999997,0.0,1
109109,-0.12207029999999999,-0.6870117,-0.1777344,-4.699707,-28.13721,10.13184,-109.2865,8.920898,-53.69019,-10.29167,-6.533333,1.916667,1
109329,0.4448242,-1.255371,-0.07861328000000001,98.81592,-39.85596,13.91602,-110.2478,7.833252,-48.62549,23.15,4.233333,37.33333,1
109579,0.04199219,-0.6538086,-0.1733398,-0.6103516,27.58789,-21.85059,-109.5062,6.712646,-51.72363,-11.29167,-5.675,1.625,1
109850,0.006835938000000001,-1.362793,-0.44970699999999997,-12.69531,34.60693,17.51709,-111.3574,9.239502,-52.32239,26.40833,4.675,35.45833,1
110120,-0.08007813,-0.6225586,-0.24951169999999998,19.89746,-20.50781,7.69043,-109.6326,9.266968,-50.7843,26.14167,4.883333,36.05833,1
110429,-0.34130859999999996,-1.500977,-0.684082,-65.7959,-14.95361,-3.723145,-111.676,6.251221,-48.96606,-21.43333,-4.966667,-5.75,1
110669,0.03417969,-0.6186522999999999,-0.19726559999999999,2.01416,12.45117,4.943848,-109.5502,5.421753,-53.45947,26.34167,4.891667,33.75834,1
110949,-0.08496094,-0.5644530999999999,0.1557617,5.310059,-30.27344,-33.69141,-108.3252,7.058716,-52.7124,26.50833,5.2,33.175,1
111239,-0.1494141,-0.6606445,-0.1967773,-4.699707,-17.15088,7.507324,-109.259,8.986816,-47.63123,-9.608334,-5.783333,2.55,1
111489,0.3935547,-0.4550781,0.2802734,29.96826,30.27344,5.981445,-108.8965,7.311401,-42.57751,-17.625,-3.633333,2.633333,1
111770,0.078125,-0.7597655999999999,-0.4213867,14.5874,-7.385254,26.24512,-109.6765,6.399536,-44.87366,23.925,6.125,34.825,1
112099,0.144043,-1.655273,-0.5742188,-7.568359,-13.97705,-11.2915,-109.9127,6.311646,-44.96704,-10.866670000000001,-1.9583329999999999,-0.8416665999999999,1
112409,-0.05322266,-1.262695,-0.4326172,-21.72852,2.01416,-30.33447,-109.9072,6.470947,-42.11609,-29.125,-0.8166667,12.73333,1
112660,-0.1635742,-1.535156,-0.4008789,-6.04248,-1.403809,16.8457,-109.7424,8.497925,-41.05591,-10.88333,-2.016667,0.675,1
112859,0.1552734,-0.9526367,-0.2270508,9.033203,-16.6626,31.61621,-107.9517,8.267212,-40.75928,23.63333,5.716667,35.51667,1
113099,-0.02294922,-1.091797,-0.1000977,-50.65918,2.441406,-47.18018,-109.7809,6.915894,-42.16553,-13.48333,-3.208333,-2.758333,1
113339,-0.09521484000000001,-0.6552734,-0.2685547,21.54541,-21.1792,6.04248,-109.8962,8.54187,-40.1001,-13.51667,-5.108333,1.7083329999999999,1
113549,0.008789063,-0.8554687999999999,-0.07421875,-43.76221,41.01563,16.96777,-108.2813,6.6687009999999995,-37.10083,21.5,5.308333,37.06667,1
113799,0.07861328000000001,-0.5795897999999999,-0.15820309999999999,-4.821777,18.73779,1.403809,-108.7427,5.300903,-40.29785,-12.29167,-5.725,3.691667,1
114080,-0.45898439999999996,-0.8666992,0.04443359,35.88867,6.9580079999999995,-27.9541,-109.649,7.723389,-42.64893,24.925,5.358333,35.35,1
114350,-0.1464844,-0.5439453,-0.3945313,22.27783,-5.92041,-15.38086,-110.05,8.54187,-36.95251,23.51667,5.808333,36.7,1
114649,0.4311523,-1.762695,-0.02587891,111.8164,-40.77148,23.4375,-110.8795,6.652222,-33.54675,-27.60833,-7.125,-0.8083332999999999,1
114899,-0.007324219000000001,-0.6708984,-0.28564449999999997,7.080078,9.765625,10.25391,-108.446,4.888916,-37.89185,23.825,5.133333,34.08333,1
115179,-0.1235352,-0.8881836,0.03173828,-13.42773,7.385254,2.197266,-108.6823,7.053223,-35.74402,23.74167,5.416667,34.65,1
115469,-0.1518555,-0.7431641,-0.28613279999999996,-3.90625,-9.155273,10.92529,-109.4128,8.756104,-35.09033,-10.81667,-3.966667,4.616667,1
115719,0.4555664,-0.5297852,0.25439449999999997,21.72852,51.45264,16.17432,-107.7484,6.652222,-33.12927,-19.05,-3.483333,3.966667,1
115999,-0.03076172,-0.6767578,-0.46582029999999996,24.4751,2.990723,30.76172,-109.4897,5.366821,-36.76575,-17.875,-4.883333,-1.358333,1
116329,0.020996090000000002,-1.515137,-0.359375,-11.41357,5.7983400000000005,-30.39551,-110.7751,5.29541,-36.49109,-13.425,-4.066667,-3.016667,1
116609,0.024902340000000002,-0.7993163999999999,-0.20556639999999998,25.08545,-0.793457,-36.19385,-107.6221,6.745605,-31.76147,-26.63333,-14.09167,-7.358333,1
116969,0.02978516,-0.7480469,-0.21386719999999998,-1.098633,27.64893,4.699707,-108.1714,4.844971,-33.71155,22.76667,6.383333,34.58333,1
117209,-0.05419922,-1.028809,-0.3710938,-15.99121,-2.685547,12.02393,-106.6608,8.047485,-35.9967,-20.73333,-0.025,3.383333,1
117479,0.09423828000000001,-1.582031,-0.4013672,-36.56006,-10.49805,-40.52734,-107.6111,5.39978,-34.56299,-13.05833,-3.741667,-2.058333,1
118799,-0.0546875,-1.054688,-0.6455078,-42.72461,12.02393,4.821777,-109.1272,5.278931,-24.80164,22.325,5.3,37.76667,1
119030,-0.08007813,-1.44873,-0.2915039,17.15088,22.82715,-4.577637,-108.1549,7.3718259999999995,-24.53247,-11.525,-2.408333,-0.55,1
119309,-0.01367188,-0.7280272999999999,-0.32617189999999996,8.544922,4.943848,12.08496,-108.1274,4.5593259999999995,-29.69604,-15.73333,-4.233333,1.85,1
119529,-0.1357422,-0.8476562999999999,0.06689453000000001,-21.97266,3.173828,-33.69141,-107.5122,6.487427,-31.0199,27.35,5.158333,33.50834,1
119799,0.03515625,-0.5981445,-0.3129883,15.93018,-16.11328,-31.49414,-105.8313,7.382813,-25.52673,25.475,4.991667,32.08333,1
120039,0.8203125,-0.7705078,0.3393555,97.77832,-47.30225,-7.080078,-105.0183,5.256958,-20.88501,-23.43333,-5.291667,4.433333,1
120320,0.01318359,-0.6630859,-0.35742189999999996,9.216309,15.80811,19.47021,-107.9681,4.729614,-28.00415,26.5,6.05,31.94167,1
120629,0.1455078,-1.547852,-0.26220699999999997,-44.37256,11.1084,-48.03467,-108.9459,4.235229,-29.8938,-13.2,-3.883333,-3.416667,1
120920,0.05419922,-0.9438477,-0.1601563,22.3999,-3.845215,-31.98242,-106.6553,6.311646,-21.8573,22.83333,6.85,34.325,1
121239,0.22216799999999998,-0.8691405999999999,-0.1733398,5.92041,39.0625,-11.90186,-107.7374,6.547852,-20.85754,-10.85833,-2.3,-0.2833333,1
121529,0.1567383,-1.090332,-0.4697266,-31.86035,-8.850098,-0.24414059999999999,-107.2375,8.294678,-23.02185,25.85833,7.6,35.53333,1
121839,-0.16601559999999999,-0.6635742,-0.1679688,-7.507324,9.94873,26.55029,-109.1876,7.124634,-22.83508,25.66667,7.691667,38.16667,1
122120,0.16650389999999998,-1.631836,-0.07958984,68.96973,-54.62646,-18.06641,-110.2698,6.328125,-19.18762,22.45,6.5,37.46667,1
122449,-0.02050781,-0.6958008,-0.30273439999999996,6.164551,-11.71875,2.868652,-107.7374,4.806519,-17.8363,-15.25,-6.333333,2.208333,1
122720,-0.04931641,-0.8925780999999999,0.08789063,-27.70996,-3.78418,-28.32031,-106.8585,6.245728,-17.9187,21.80833,5.308333,37.16667,1
122959,-0.1674805,-0.6484375,-0.2260742,12.81738,-21.24023,14.28223,-107.0233,7.470703,-16.01807,-10.28333,-4.525,1.491667,1
123199,-0.2241211,-0.9877929999999999,-0.9897461,-72.14355,-5.432129,4.394531,-108.3362,4.614258,-12.83752,-3.191667,2.791667,5.025,1
123419,0.01367188,-0.5605469,-0.12255859999999999,0.9155272999999999,26.12305,-4.272461,-107.2046,4.141846,-15.54565,20.8,4.308333,36.36666,1
123659,-0.03369141,-1.114746,-0.3935547,-16.60156,-3.173828,12.75635,-106.2653,7.124634,-17.99011,-19.04167,-2.133333,2.033333,1
123939,0.17871089999999998,-1.463867,-0.4462891,3.234863,-22.82715,-3.2958979999999998,-106.853,3.669434,-15.68848,-10.50833,-1.275,0.1166667,1
124149,-0.1132813,-1.200195,-0.39599609999999996,-17.02881,-4.272461,-25.6958,-105.8038,4.932861,-12.27722,22.11667,3.25,34.35833,1
124389,-0.2036133,-1.682617,-0.4477539,-10.43701,-6.652832,-9.338379,-107.8802,7.020264,-11.35986,-12.34167,-2.95,-1.9916669999999999,1
124640,-0.008300781,-0.9648437999999999,-0.284668,3.662109,-27.64893,23.37646,-105.8588,6.091919,-12.63428,24.775,3.033333,33.06667,1
124919,-0.07568359,-0.8984375,0.03662109,-25.63477,-1.281738,-17.08984,-106.1005,5.784302,-10.73914,-13.866670000000001,-1.9916669999999999,-0.3916667,1
125150,-0.02441406,-0.7241211,-0.3505859,25.26855,-8.544922,-27.9541,-105.65,6.932373,-10.59631,24.55,2.391667,31.975,1
125469,0.1035156,-0.9150391,-0.1474609,12.02393,17.63916,-24.41406,-107.2211,6.080933,-5.679932,-10.875,-2.125,-0.6916667,1
125769,0.0234375,-1.047363,-0.38769529999999996,-4.638672,1.89209,13.91602,-106.095,6.992798,-9.904175,26.23333,2.75,33.45,1
126079,-0.1679688,-0.7065429999999999,-0.1835938,-15.19775,-16.78467,17.45605,-108.9899,5.712891,-6.399536,-10.55,-6.025,2.9333329999999997,1
126409,-0.024902340000000002,-1.470215,-0.4287109,20.38574,-74.95117,-35.09521,-111.0883,3.878174,-1.439209,-20.2,-5.458333,-5.191667,1
126719,0.04589844,-0.7651367,-0.2421875,0.6713867,25.5127,3.4790039999999998,-106.4685,3.202515,-5.064697,-12.66667,-5.275,2.291667,1
126950,-0.11474609999999999,-0.6894530999999999,0.1416016,-16.60156,-15.19775,-15.80811,-106.1609,4.768066,-6.657715,23.90833,3.091667,32.85,1
127199,-0.1655273,-0.6938477,-0.22509769999999998,0.6713867,-14.70947,11.77979,-107.4738,6.454468,-2.993774,-9.816667,-4.333333,3.583333,1
127439,-0.17041019999999998,-1.074219,-0.9248046999999999,-84.04541,9.82666,16.41846,-108.479,4.284668,-0.6317138999999999,-11.60833,7.158333,10.20833,1
127649,0.10693359999999999,-0.5429688,-0.07226563,6.04248,13.48877,-9.82666,-106.9794,3.389282,-0.08239746,19.63333,4.475,34.94167,1
127889,0.08349609,-1.04834,-0.3588867,-9.277344,-5.371094,29.11377,-105.9357,6.240234,-0.2966309,-23.14167,-0.9500000000000001,3.3,1
128169,0.04980469,-1.494629,-0.2607422,-28.56445,-2.441406,-36.19385,-107.1936,4.081421,0.44494629999999996,-13.19167,-3.966667,-3.025,1
128389,0.03417969,-0.8769530999999999,-0.2612305,8.972168,-10.92529,-42.60254,-105.3644,3.988037,5.767822,-20.25,-14.00833,-5.783333,1
128660,0.14697269999999998,-0.8833008,-0.159668,8.239746,22.88818,-16.8457,-105.7324,4.669189,9.0802,16.20833,4.975,37.29167,1
128959,0.078125,-0.7294921999999999,-0.3754883,19.47021,-4.699707,29.41895,-105.6061,3.78479,7.333374,-19.075,-7.108333,-3.333333,1
129209,0.1411133,-1.510254,-0.4331055,-0.793457,-33.69141,-17.15088,-106.6168,2.878418,8.421021,-11.24167,-2.333333,-0.5166666999999999,1
129479,-0.04003906,-1.123535,-0.2919922,-11.1084,1.098633,-31.31104,-105.7434,2.570801,16.40808,12.09167,4.425,39.84167,1
129749,-0.17480469999999998,-1.598633,-0.34130859999999996,-9.033203,-11.41357,3.356934,-107.9132,4.251709,18.47351,-12.1,-2.908333,-0.9500000000000001,1
129989,0.01025391,-0.8911133,-0.24511719999999998,12.87842,-18.31055,30.57861,-104.9963,3.872681,15.73242,14.3,5.033333,38.44167,1
130299,0.007324219000000001,-0.7744141,-0.1699219,-13.06152,-30.15137,4.516602,-106.3586,3.004761,18.86902,12.11667,4.891667,41.55833,1
130580,-0.3393555,-1.14502,-0.8471679999999999,-83.19092,3.845215,-1.525879,-108.7042,1.488647,25.36194,7.925,3.558333,45.10833,1
130880,0.105957,-0.5986328,-0.1054688,-5.249023,12.146,-2.807617,-105.9357,1.73584,27.66357,8.133333,3.633333,44.21667,1
131219,-0.2592773,-1.146973,0.17041019999999998,50.53711,47.30225,15.68604,-105.9357,4.361572,24.08752,-30.775,-9.925,-7.383333,1
131449,-0.078125,-0.6132812999999999,-0.12451169999999999,-13.42773,-21.42334,2.075195,-107.1167,1.983032,27.3999,-10.80833,-6.233333,2.916667,1
131669,0.026367190000000002,-1.097656,-0.38037109999999996,-2.197266,-13.67188,-26.7334,-105.5457,1.494141,32.68433,-33.11666,-0.31666669999999997,5.666667,1
131879,0.10058589999999999,-0.6962891,-0.12695309999999999,-1.89209,32.4707,-7.385254,-105.9137,1.318359,32.69531,6.233333,3.083333,46.58333,1
132119,-0.08642578000000001,-0.9252929999999999,-0.2900391,18.85986,-4.455566,35.7666,-104.09,2.329102,28.33374,-22.88333,-7.833333,-3.708333,1
132399,-0.08056641,-1.212402,0.04248047,-27.34375,-3.2958979999999998,-22.64404,-105.6116,1.450195,31.17371,-12.59167,-2.758333,-2.625,1
132619,-0.06201172,-0.9389647999999999,-0.206543,16.11328,-7.93457,-35.64453,-105.6885,2.39502,35.98572,-21.45,-12.93333,-5.941667,1
132890,0.1333008,-0.7695312999999999,-0.1616211,-0.3662109,24.90234,-15.74707,-106.9739,1.604004,37.2052,5.341667,2.416667,50.13334,1
133369,-0.09521484000000001,-0.7670897999999999,0.2226563,-2.075195,-0.9155272999999999,-22.94922,-107.5507,1.472168,34.29932,-14.15,-3.033333,-0.05833333,1
133619,0.04541016,-0.5615234,-0.36376949999999997,11.53564,-17.7002,-36.19385,-107.1497,2.037964,36.12854,5.158333,2.25,49.66667,1
133929,0.15625,-0.8950195,-0.1015625,21.72852,23.31543,-18.9209,-107.6495,1.07666,35.9967,-8.225,-1.8,1.341667,1
134219,-0.03564453,-1.092773,-0.4604492,-22.09473,-19.16504,9.887695,-106.9244,2.653198,29.01489,8.866667,3.8,46.59167,1
134529,-0.2109375,-0.6245117,-0.1210938,-2.13623,-26.97754,9.82666,-109.1382,1.373291,33.0249,7.008333,2.866667,50.63334,1
135899,-0.19775389999999998,-1.150879,-0.7324219,-0.24414059999999999,-61.15723,-37.10938,-112.3792,-1.571045,35.57922,-25.925,-6.558333,-5.675,1
136149,0.01367188,-0.6137695,-0.2270508,10.00977,17.8833,2.990723,-107.7869,-1.543579,32.43713,-13.35833,-5.408333,3.158333,1
136459,-0.22851559999999999,-0.6166992,0.1113281,2.01416,-27.771,-77.94189,-107.2815,0.2362061,29.371950000000002,-14.475,-3.216667,-1.241667,1
136789,0.1611328,-0.5776367,-0.2768555,17.21191,-33.81348,-33.69141,-109.0668,0.9118651999999999,37.67212,-17.91667,-14.075,-8.775,1
136999,0.7353516,-0.4130859,0.2915039,64.7583,20.75195,15.56396,-107.6166,-0.06591797,41.09436,-16.775,-3.591667,6.116667,1
137209,0.046875,-0.5449219,-0.1157227,2.685547,37.8418,0.9155272999999999,-109.2535,-1.109619,33.92578,-10.75,-6.6,2.491667,1
137419,-0.02734375,-0.9916992,-0.37939449999999997,-0.9765625,-7.263184,8.178711,-107.9572,2.664185,29.92126,-17.09167,-1.75,2.541667,1
137630,-0.1772461,-0.6914062999999999,-0.15136719999999998,-1.8310549999999999,-23.4375,9.58252,-109.1766,0.5053711,31.5802,5.091667,2.141667,51.93333,1
137869,-0.03466797,-1.187012,-0.3378906,-18.12744,-15.44189,-30.39551,-107.7045,-0.2966309,36.26587,-31.33333,2.283333,12.53333,1
138119,0.08544922,-0.6430663999999999,-0.1289063,-7.019043,29.78516,-16.60156,-108.1,-0.6811522999999999,34.05762,2.891667,0.9416667,52.36666,1
138369,0.05419922,-0.9580078,-0.3388672,1.89209,-1.586914,39.18457,-108.1165,0.4394531,31.15173,-20.24167,-5.008333,-1.825,1
138639,0.00390625,-1.828613,-0.3291016,-56.09131,11.41357,-50.78125,-110.1105,-1.549072,28.9325,-12.83333,-3.891667,-2.525,1
138849,-0.16699219999999998,-0.5834961,-0.2280273,25.32959,-17.39502,-0.6103516,-108.8361,1.466675,30.04211,-16.45,-5.025,0.4666667,1
139069,-0.07373047,-1.534668,-0.3979492,-52.24609,-4.333496,26.42822,-109.9786,0.2252197,30.60242,-12.28333,-3.375,-1.5,1
139340,-0.06445313,-0.7060546999999999,-0.2587891,17.08984,-20.38574,31.00586,-106.875,0.13732909999999998,26.47156,5.033333,2.275,47.08333,1
139619,-0.07177734,-0.8471679999999999,0.109375,-32.40967,4.516602,-34.05762,-108.2373,0.03845215,25.70801,-15.33333,-4.15,2.141667,1
139859,0.1298828,-0.6254883,-0.37353519999999996,16.54053,-43.09082,-28.80859,-106.4301,0.5438232,30.58044,3.208333,1.091667,48.86666,1
140169,0.1791992,-1.100586,-0.1791992,25.14648,-9.643555,-25.5127,-107.1881,-0.1318359,33.79395,2.316667,0.2083333,50.35,1
140439,0.03417969,-0.6079102,-0.3759766,12.69531,30.51758,26.61133,-106.5234,-1.785278,27.76245,-18.63333,-5.225,-2.541667,1
140679,0.09082031,-1.395996,-0.4140625,-1.464844,-10.43701,6.103516,-108.0231,-1.554565,25.85632,4.3,1.341667,48.54167,1
141029,-0.06445313,-1.082031,-0.2202148,-6.103516,-15.68604,-31.37207,-106.4795,0.1318359,31.60767,-27.19167,-0.008333334000000001,-2.966667,1
141229,-0.2714844,-1.435547,-0.2900391,-28.9917,-5.065918,20.93506,-109.0393,0.14282229999999999,33.79395,-14.19167,-3.858333,-0.45,1
141449,0.06542969,-0.6269530999999999,-0.1811523,5.554199,2.868652,4.821777,-107.9956,-1.741333,32.12402,-13.51667,-4.391667,2.116667,1
141659,0.31835939999999996,-1.197266,-0.5498046999999999,-34.11865,17.45605,12.69531,-108.5669,1.593018,30.49805,-11.55833,1.8333329999999999,0.4583333,1
141869,-0.1606445,-0.6855469,-0.19726559999999999,10.62012,-33.26416,0.0,-108.1604,0.34606929999999997,30.58044,1.95,1.116667,53.95,1
142119,0.009277344,-0.965332,-0.5859375,-28.38135,2.868652,-10.86426,-106.3696,-1.796265,35.04089,-10.775,1.591667,8.75,1
142369,0.109375,-0.6845703,-0.06689453000000001,-1.708984,41.01563,-2.258301,-108.7207,-2.609253,30.305790000000002,-14.03333,-5.875,-0.48333329999999997,1
142670,-0.06542969,-1.1845700000000001,-0.34130859999999996,-11.1084,61.4624,34.48486,-111.2256,-0.09887695,18.71521,3.166667,3.458333,48.725,1
142979,-0.04248047,-0.7626953,-0.24511719999999998,12.81738,17.02881,6.652832,-111.4728,-0.802002,13.61206,3.891667,3.908333,47.01667,1
143249,-0.24951169999999998,-0.9970703,-0.6547852,-29.66309,33.14209,-7.995605,-111.1761,-4.674683,8.201294,-15.03333,0.6833332999999999,4.083333,1
143489,0.09814453000000001,-0.8212891,-0.21777339999999998,6.225586,106.3843,23.13232,-108.6438,-6.531372,-7.651978,11.40833,4.666667,34.25,1
143799,0.09228516,-0.9208984,-0.5112305,-26.06201,91.00342,49.01123,-105.4193,-4.993286,-39.0564,-19.80833,-0.9166667,-4.2,1
144089,0.028808590000000002,-0.7348633,-0.331543,-1.6479489999999999,123.8403,57.92236,-106.507,-0.5932617,-69.97192,54.35,4.683333,35.43333,1
144399,0.1767578,-1.514648,0.01269531,19.22607,68.96973,-8.728026999999999,-103.5846,-1.741333,-109.9457,65.71667,0.7083332999999999,50.84167,1
144680,-0.07128906,-0.7773437999999999,-0.362793,-9.094238,93.32275,12.02393,-102.2003,-3.6804200000000002,-140.0867,64.775,-1.683333,67.48333,1
144980,-0.19384769999999998,-1.095703,-0.017089840000000002,-16.47949,50.47607,17.08984,-107.9681,0.0769043,-151.7816,64.53333,-6.358333,76.96667,1
145319,-0.07470703000000001,-0.7192383,-0.3823242,17.51709,25.63477,7.568359,-108.7262,2.510376,-155.6488,-17.39167,-2.925,2.483333,1
145549,-0.2832031,-1.490234,-0.5053711,-21.85059,-36.92627,-11.53564,-110.7697,0.18676759999999998,-159.1974,-21.79167,-4.941667,-2.358333,1
145769,0.14697269999999998,-0.7714844,-0.1484375,-5.67627,22.2168,-14.34326,-108.1494,-0.1538086,-158.7744,-12.991670000000001,-3.991667,1.0,1
145979,0.1953125,-0.9521484,-0.6855469,-30.63965,13.5498,4.211426,-109.1821,2.774048,-159.8621,64.375,-8.141666,79.875,1
146219,-0.08691406,-1.234375,-0.2651367,25.57373,11.16943,33.14209,-111.1542,0.3515625,-165.2673,-11.225,-2.916667,-0.4583333,1
146499,-0.08398438,-0.6015625,-0.3989258,27.22168,-7.263184,-16.35742,-110.874,3.510132,-162.8668,-17.1,-5.666667,-1.941667,1
146709,-0.425293,-1.427246,-0.3598633,-5.615234,16.17432,35.21729,-111.1542,3.817749,-157.9559,64.69167,-8.183333,78.93333,1
146959,0.002929688,-0.7172852,-0.3154297,18.98193,14.16016,8.117676,-109.1547,0.4888916,-162.2516,-14.25,-3.491667,3.158333,1
147200,-0.3076172,-0.4541016,0.08349609,14.4043,-31.73828,-42.41943,-108.5999,3.872681,-161.0596,63.78333,-7.8,79.14167,1
147469,-0.08886719,-0.6699219,-0.20507809999999999,-3.662109,-15.99121,13.79395,-111.3904,4.136353,-157.3682,-9.633333,-5.975,3.308333,1
147719,0.5859375,-0.765625,0.2158203,71.59424,-35.64453,-1.6479489999999999,-110.2094,1.884155,-153.4241,64.68333,-7.316667,77.0,1
148029,0.04589844,-0.7211913999999999,-0.34863279999999996,28.32031,-2.563477,14.5874,-108.7372,0.7745361,-156.5881,-16.75833,-5.158333,0.05,1
148319,-0.02294922,-1.597168,-0.33300779999999996,-32.71484,7.263184,-32.89795,-110.3961,2.081909,-155.1599,64.75,-7.625,76.58334,1
148629,-0.03613281,-0.8457030999999999,-0.1933594,1.953125,-13.97705,-49.19434,-109.3964,2.466431,-151.3477,65.15,-6.458333,74.75,1
148910,0.1210938,-0.7646484,-0.16259769999999998,-2.868652,32.22656,-5.310059,-110.8191,2.5927729999999998,-150.1062,65.5,-6.841667,74.625,1
149210,0.2314453,-1.140625,-0.637207,-44.37256,-12.08496,-5.310059,-111.3574,5.234985,-155.8575,67.19167,-9.3,76.16666,1
149549,-0.1020508,-0.6542969,-0.203125,-0.3662109,-28.62549,7.751465,-112.3682,4.356079,-152.4573,-9.65,-5.183333,4.025,1
149779,0.041015630000000004,-0.9799804999999999,-0.6010742,-53.83301,5.065918,-7.385254,-111.3849,1.7303469999999999,-149.3866,-8.241667,2.2,5.991667,1
149999,0.1450195,-1.094727,-0.296875,36.92627,19.53125,-7.385254,-112.7307,4.059448,-147.1674,-9.108334,-1.716667,0.6083333,1
150209,0.10058589999999999,-1.070801,-0.3193359,-2.990723,-0.6103516,34.66797,-111.0333,4.707642,-154.9017,66.68333,-7.858333,74.69167,1
150459,-0.00390625,-1.760254,-0.41210939999999996,-4.150391,18.12744,-35.94971,-113.5162,1.829224,-155.5225,-12.89167,-4.141667,-1.2,1
150719,-0.07519531,-0.5961913999999999,-0.2651367,27.83203,-21.11816,-1.953125,-111.7914,5.471191,-151.062,-15.48333,-2.533333,1.641667,1
150939,0.1230469,-1.060059,-0.121582,-70.92285,8.972168,30.27344,-112.132,2.900391,-148.3319,66.03333,-6.091667,72.80833,1
152299,0.0034179690000000003,-0.7548828,-0.3085938,15.01465,9.399414,12.45117,-112.066,0.7470703,-153.8525,-15.81667,-2.866667,2.041667,1
152529,0.3085938,-1.291992,-0.762207,-39.48975,25.32959,11.71875,-113.0328,4.707642,-155.506,-12.58333,0.75,-5.016667,1
152750,-0.0625,-0.6577147999999999,-0.199707,10.13184,-16.6626,8.850098,-112.4561,3.894653,-155.6873,64.525,-6.833333,74.20834,1
153059,0.1533203,-0.5610352,0.052734380000000004,1.7700200000000001,27.89307,7.202148,-111.9946,2.894897,-154.5227,-17.05833,-3.533333,0.2166667,1
153350,0.02929688,-0.6147461,-0.4228516,21.48438,-11.23047,30.88379,-112.5,1.6754149999999999,-160.5157,62.94167,-6.85,76.26667,1
153659,0.08007813,-1.6762700000000001,-0.5400391,19.34814,-9.216309,-13.12256,-113.9941,1.060181,-162.1362,-11.44167,-2.866667,-0.55,1
153959,0.02050781,-1.003906,-0.29345699999999997,-2.502441,-17.33398,-41.68701,-111.5222,2.537842,-156.4563,62.85833,-5.908333,75.60833,1
154269,0.048828130000000004,-0.7128905999999999,-0.1713867,-9.765625,35.7666,-15.07568,-112.8625,3.026733,-157.8131,62.61666,-6.608333,76.94167,1
154539,-0.02441406,-0.9169921999999999,-0.2529297,9.399414,-10.74219,35.46143,-112.099,3.773804,-160.9113,-20.61667,-12.46667,-5.033333,1
154779,-0.128418,-0.8520508,-0.20166019999999998,-17.57813,-23.13232,9.277344,-114.1974,2.741089,-162.0099,63.275,-8.308333,78.825,1
155119,-0.1645508,-0.9721679999999999,-0.7602538999999999,-62.86621,14.89258,3.051758,-114.6918,1.549072,-159.8621,-9.858334,-0.45,-1.35,1
155329,0.171875,-0.9990234,-0.20996089999999998,6.835938,34.66797,-13.06152,-114.3787,3.790283,-159.2963,-11.625,-2.675,-0.85,1
155539,0.01171875,-0.7377929999999999,-0.4296875,15.93018,1.220703,21.85059,-113.67,1.889648,-163.7402,-17.525,-4.333333,-0.125,1
155750,-0.25,-1.320801,-0.1552734,17.7002,32.53174,9.094238,-114.9774,5.015259,-166.9592,-27.075,-5.766667,-3.816667,1
155960,-0.06689453000000001,-0.6313477,-0.28613279999999996,20.56885,-11.16943,3.4790039999999998,-113.5547,5.361328,-163.3942,64.39167,-8.475,78.28333,1
156209,-0.43603519999999996,-1.135742,-0.8852538999999999,-56.64063,-19.04297,-10.43701,-115.9991,1.994019,-163.0206,-9.925,-1.875,-8.025,1
156459,0.08300781,-0.7094727,-0.152832,1.525879,27.34375,0.12207029999999999,-112.8625,1.939087,-163.5754,62.20833,-6.841667,78.48333,1
156699,-0.08203125,-0.9428711,-0.315918,-17.08984,3.967285,20.69092,-111.0883,5.08667,-168.5522,-25.08333,2.133333,5.225,1
156969,0.02441406,-1.723145,-0.45947269999999996,-13.00049,17.39502,-21.3623,-113.6536,1.642456,-169.9805,-13.025,-3.766667,-2.075,1
157190,-0.01660156,-0.9072266,-0.2607422,10.43701,-17.51709,-46.93604,-111.4014,2.576294,-165.9595,61.675,-6.316667,78.30833,1
157460,0.07763672,-0.7890625,-0.1362305,0.9155272999999999,23.55957,-8.605957,-113.3075,2.6477049999999998,-166.2286,62.05833,-7.375,79.31667,1
157759,-0.0546875,-0.6552734,-0.315918,31.06689,0.3051758,36.86523,-112.1869,2.197266,-170.5188,-17.38333,-11.20833,-5.983333,1
157999,-0.2275391,-1.171387,-0.30224609999999996,-16.6626,-1.953125,12.39014,-114.6643,0.8953857,-175.5286,-12.91667,-3.625,-0.1083333,1
158289,-0.08105469,-0.9858397999999999,-0.2919922,0.4882813,30.45654,-25.5127,-113.3569,0.6591796999999999,-175.0012,58.73333,-8.308333,84.525,1
158589,-0.009277344,-1.329102,-0.2563477,-10.25391,-10.74219,26.12305,-115.5103,1.582031,-176.8414,-14.375,-4.125,0.1083333,1
158839,-0.09423828000000001,-0.6411133,-0.36376949999999997,18.12744,11.16943,36.9873,-111.86280000000001,-0.2362061,172.3425,-15.41667,-7.308333,-3.741667,1
159149,-0.09472656,-1.398926,-0.5166016,-0.12207029999999999,14.5874,-5.92041,-116.087,-1.389771,168.2886,-13.08333,-4.35,-0.225,1
159380,0.005371094000000001,-0.8217772999999999,-0.3457031,23.4375,20.50781,-26.42822,-111.5497,-0.43396,169.2773,52.63334,-10.03333,91.625,1
159629,-0.0546875,-1.02832,-0.1298828,-37.78076,14.4043,25.57373,-112.4011,-0.1647949,167.6569,-13.61667,-3.266667,0.2083333,1
159869,-0.05029297,-0.7636719,-0.3032227,6.896973,38.39111,4.577637,-111.8903,-2.823486,160.4938,-11.825,-6.716667,2.866667,1
160079,-0.49853519999999996,-1.195313,0.1611328,21.11816,41.19873,4.211426,-113.0548,1.5051269999999999,154.4568,47.35,-13.04167,97.08334,1
160319,-0.1123047,-0.7919921999999999,-0.2573242,-5.187988,-32.2876,6.225586,-112.9175,-0.0604248,153.2043,-11.375,-4.541667,3.8,1
160599,-0.1079102,-0.9565429999999999,-0.2246094,20.08057,14.22119,-25.87891,-109.3085,-0.2307129,155.6763,-19.80833,-11.475,-6.883333,1
160819,0.2773438,-0.9111328,-0.1567383,-0.42724609999999996,37.96387,-5.187988,-109.8468,-0.0604248,156.3519,-12.76667,-4.4,-0.17500000000000002,1
161090,0.1411133,-0.9521484,-0.18945309999999999,-2.746582,-22.70508,21.72852,-107.8912,2.15332,151.5564,46.51667,-11.475,94.83334,1
161389,0.14306639999999998,-1.39502,-0.2182617,-17.7002,36.9873,-44.92188,-111.2366,-0.1153564,149.6283,-13.06667,-4.141667,0.5166666999999999,1
161639,0.00390625,-0.6572266,-0.3129883,23.13232,-0.9155272999999999,-27.34375,-107.4188,1.021729,153.0725,-15.10833,-11.16667,-6.941667,1
161909,0.15039059999999999,-1.20166,-0.2470703,14.22119,6.9580079999999995,-19.77539,-109.3744,0.5932617,154.325,44.53333,-12.85,97.00833,1
162249,0.044921880000000004,-0.9472655999999999,-0.1674805,8.972168,-12.26807,34.05762,-107.1112,1.8951419999999999,149.9249,-22.15833,-9.166667,-3.358333,1
162509,-0.18164059999999999,-0.8056641,-0.22558589999999998,-4.333496,-19.34814,8.728026999999999,-110.9949,0.08239746,147.0081,41.975,-15.61667,98.90833,1
162819,0.009765625,-0.6430663999999999,-0.3896484,29.1748,-2.624512,-31.12793,-108.913,1.867676,150.5017,-15.675,-11.6,-6.433333,1
163069,0.1318359,-1.222656,-0.296875,21.78955,-12.146,-26.97754,-109.6271,1.867676,153.6108,-11.41667,-2.358333,0.625,1
163339,0.10693359999999999,-0.9472655999999999,-0.2192383,-0.42724609999999996,-22.33887,30.70068,-107.655,2.389526,151.3422,-20.58333,-6.566667,-1.9916669999999999,1
163719,-0.03369141,-0.6821288999999999,-0.2695313,20.32471,-35.21729,2.01416,-109.8029,2.136841,150.9192,43.44167,-15.68333,95.89167,1
163979,-0.09960938,-0.8842772999999999,-0.6777344,-51.14746,4.760742,0.793457,-108.2703,-0.7635498,153.847,-12.05833,3.291667,8.4,1
164219,0.0390625,-1.2573239999999999,-0.2797852,30.39551,1.953125,-16.6626,-108.7152,1.18103,155.8191,-12.35,-2.783333,-0.55,1
164429,0.030273440000000002,-0.9287109,-0.21386719999999998,13.12256,-4.882813,34.11865,-106.2762,2.548828,151.7487,44.025,-13.28333,92.95,1
164669,-0.0078125,-0.9638671999999999,-0.08740234,-28.93066,23.86475,-29.84619,-108.3746,0.8074950999999999,149.057,-15.73333,-3.65,-1.716667,1
164919,-0.06494141,-0.6625977,-0.32568359999999996,44.25049,-9.033203,-22.2168,-106.6772,1.560059,150.7599,42.54167,-13.00833,93.35833,1
165169,0.7724609,-0.8457030999999999,0.2524414,65.85693,-49.01123,5.249023,-107.2211,-0.302124,155.3906,-17.54167,-3.75,0.6833332999999999,1
165440,-0.044921880000000004,-0.7045897999999999,-0.4091797,14.03809,-0.4882813,31.12793,-108.8745,-0.4504395,149.6503,42.35833,-13.96667,94.79166,1
165739,0.06494141,-1.279785,-0.1962891,-8.728026999999999,31.31104,-38.33008,-110.2478,0.07141113,149.5789,-13.575,-4.016667,-0.8666667,1
166049,0.03857422,-0.7851562999999999,-0.26318359999999996,24.4751,3.540039,-26.67236,-107.0728,1.087646,153.6823,45.05833,-12.24167,92.8,1
166359,0.2504883,-1.024414,-0.203125,5.310059,17.82227,-10.13184,-108.468,0.6866455,156.2311,-11.83333,-2.716667,-0.1,1
166649,0.1054688,-0.9316405999999999,-0.2319336,-9.460449,4.882813,26.48926,-106.9519,2.817993,151.1115,47.08333,-12.975,93.74167,1
166959,-0.18603519999999998,-0.7885742,-0.2226563,-3.051758,-13.73291,15.19775,-109.5062,0.5932617,146.5356,44.30833,-14.36667,95.76667,1
167229,-0.09277344,-0.8105469,-0.31054689999999996,20.81299,23.55957,-29.11377,-107.276,-0.04394531,146.1401,-19.65,-12.325,-8.666667,1
167479,0.08447266,-0.9970703,-0.2006836,2.868652,26.06201,-6.347656,-108.9954,-0.2636719,148.4857,-12.13333,-3.225,-0.325,1
167779,-0.03857422,-0.9565429999999999,-0.2973633,-2.685547,-0.9765625,20.38574,-106.3806,2.713623,145.5139,-23.94167,0.47500000000000003,4.208333,1
169240,-0.1259766,-0.8579102,-0.2182617,-2.441406,-13.85498,5.67627,-108.7262,1.043701,149.2712,-11.03333,-4.533333,2.275,1
169419,-0.030273440000000002,-0.7631836,-0.3232422,11.84082,-5.92041,-35.88867,-106.474,0.7525634999999999,152.2485,-18.84167,-12.875,-8.783334,1
169639,0.11621089999999999,-0.8818359,-0.1293945,-64.63623,-9.82666,5.859375,-107.4957,-0.0769043,155.8026,-16.30833,-2.841667,1.516667,1
169849,0.03076172,-0.7299804999999999,-0.15869139999999998,1.525879,10.49805,-5.554199,-107.6111,-1.016235,155.2094,-12.54167,-6.425,3.283333,1
170060,-0.3427734,-1.497559,-0.1831055,5.981445,20.50781,-4.455566,-108.9789,3.103638,153.4021,47.46667,-11.675,94.93333,1
170309,-0.1054688,-0.8334961,-0.1875,-4.699707,-14.64844,11.96289,-108.6658,1.213989,153.6053,-11.85,-4.15,3.133333,1
170549,-0.2729492,-0.890625,-0.7597655999999999,-56.7627,5.554199,0.793457,-108.49,-0.5987549,153.0835,44.26667,-11.83333,96.15,1
170799,0.2436523,-0.9833984,-0.1914063,-1.464844,21.85059,-18.06641,-107.3969,0.24719239999999998,154.2316,-13.1,-3.441667,-0.47500000000000003,1
171069,-0.007324219000000001,-0.7001953,-0.4018555,27.52686,13.85498,28.01514,-106.3367,-1.142578,149.6173,-15.93333,-3.241667,-1.2,1
171290,0.01611328,-1.466797,-0.3476563,-14.64844,37.8418,-33.81348,-109.292,-0.24719239999999998,147.6672,41.725,-13.39167,97.51667,1
171569,-0.008789063,-0.8774413999999999,-0.3598633,21.11816,76.0498,9.94873,-105.8203,1.296387,148.2001,41.95,-10.95,94.05833,1
171859,0.08935547,-1.074219,-0.1967773,-15.625,36.43799,37.35352,-105.293,-0.604248,140.7733,-15.20833,-2.658333,-1.433333,1
172099,-0.02929688,-0.7070312999999999,-0.3300781,31.73828,-19.71436,26.48926,-106.0181,0.19775389999999998,140.3119,-18.68333,-8.383333,-6.575,1
172379,-0.2641602,-1.153809,-0.34082029999999996,-3.173828,-7.019043,15.80811,-108.3252,-0.8898925999999999,140.993,38.325,-12.375,96.575,1
172689,-0.2280273,-0.6386719,-0.35644529999999996,19.104,0.5493163999999999,-17.76123,-108.045,1.642456,141.3116,-18.10833,-7.733333,-1.775,1
172929,-0.02587891,-1.435547,-0.3710938,22.09473,-36.43799,-25.81787,-109.9841,2.032471,148.689,-12.78333,-2.483333,0.2583333,1
173249,0.125,-0.9824219,-0.2387695,9.399414,-8.728026999999999,36.8042,-105.9467,3.394775,148.8153,-24.9,-5.066667,-0.8666667,1
173469,-0.1152344,-1.180664,-0.2182617,-13.12256,30.57861,-31.61621,-108.7976,1.18103,147.8046,-14.50833,-3.816667,-2.266667,1
173659,-0.056640630000000004,-0.6450195,-0.2602539,16.60156,-28.01514,-5.737305,-108.3691,1.96106,151.9519,-12.88333,-5.083333,3.85,1
173869,-0.1796875,-0.9335937999999999,-0.7841796999999999,-75.62256000000001,4.882813,-3.234863,-108.4351,-1.235962,155.5225,-8.558333,-0.9833333999999999,-6.325,1
174089,0.38916019999999996,-0.9667969,-0.18945309999999999,-6.225586,27.16064,-15.86914,-108.2208,0.7965088,157.6593,-10.975,-2.625,0.425,1
174290,0.06298828000000001,-0.9589844,-0.2910156,-1.8310549999999999,-0.12207029999999999,17.82227,-106.1334,2.136841,149.7162,45.50834,-10.8,95.29166,1
174549,0.07617188,-1.536133,-0.2915039,-22.27783,36.56006,-30.82275,-108.6713,-0.6481933999999999,147.6343,-13.65833,-3.816667,-2.4,1
174799,0.1015625,-0.7827147999999999,-0.3369141,12.39014,10.68115,-26.85547,-107.0068,0.8239746,152.9736,-17.45833,-14.69167,-10.31667,1
175100,0.3427734,-1.02832,-0.2324219,-0.9155272999999999,9.94873,-22.15576,-108.858,0.6976317999999999,155.9125,46.15,-12.625,96.45,1
175409,0.10693359999999999,-0.9873046999999999,-0.2636719,9.216309,-3.234863,22.88818,-106.9849,2.642212,150.238,45.59167,-11.91667,95.85,1
175679,0.1123047,-1.540039,-0.265625,-4.943848,31.49414,-45.6543,-108.4735,-0.5493163999999999,149.5239,-13.26667,-3.95,-2.983333,1
175919,0.03271484,-0.7773437999999999,-0.2646484,5.737305,22.03369,-26.9165,-106.5674,0.604248,151.9519,43.56667,-10.75,95.16666,1
176229,0.2519531,-0.8315429999999999,-0.14257809999999999,-2.197266,24.6582,-8.178711,-107.5507,0.4229736,155.9729,-12.16667,-3.85,0.47500000000000003,1
176519,0.09326172,-1.02002,-0.5131836,-38.08594,-5.249023,5.92041,-105.8093,3.356323,153.3087,47.66667,-11.0,92.59167,1
176829,-0.1489258,-0.7812500000000001,-0.19042969999999998,-6.347656,-39.55078,-2.990723,-107.8857,1.263428,154.1656,47.075,-11.69167,93.475,1
177110,-0.18652339999999998,-1.585938,-0.15136719999999998,4.455566,-36.01074,-24.71924,-108.8196,-0.9008788999999999,161.8396,49.025,-8.991667,89.81667,1
177410,-0.03222656,-0.6972655999999999,-0.26318359999999996,10.68115,38.33008,8.972168,-106.9519,-1.94458,155.6049,44.68333,-9.616667,92.225,1
177749,-0.2875977,-0.5595703,0.1308594,4.333496,-6.835938,-38.69629,-107.1661,1.257935,151.3257,-16.05,-3.558333,-0.85,1
177979,-0.06445313,-0.7070312999999999,-0.1733398,-1.159668,-19.71436,11.1084,-109.9402,1.801758,152.9736,-9.408334,-5.675,3.241667,1
178199,0.0234375,-1.021484,-0.6518554999999999,-52.36816,16.17432,-5.737305,-109.8523,-1.2854,154.693,-20.58333,3.725,12.61667,1
178409,0.13476559999999999,-0.6137695,-0.12207029999999999,0.1831055,47.85156,-1.7700200000000001,-108.6932,-0.6591796999999999,153.512,44.58333,-11.23333,94.45,1
178649,0.10693359999999999,-0.8935546999999999,-0.2402344,11.47461,-19.47021,32.40967,-106.5015,2.015991,150.3479,-23.725,-7.566667,-2.45,1
178919,0.06103516,-1.296387,-0.15087889999999998,-39.0625,17.94434,-43.27393,-108.7866,0.0,150.7159,-14.025,-3.816667,-1.758333,1
179139,0.03564453,-0.8129883,-0.2460938,23.4375,-4.272461,-27.771,-106.2872,0.9503174,156.0223,46.79167,-8.658334,90.825,1
179389,0.1323242,-0.9633788999999999,-0.03808594,-101.0132,7.446289,27.09961,-107.5342,-0.06591797,158.313,-15.73333,-2.8,0.8833333,1
179630,-0.06201172,-0.6450195,-0.38134769999999996,35.64453,-0.24414059999999999,33.26416,-106.6443,-0.005493164,153.8965,46.34167,-9.041667,91.9,1
179909,-0.425293,-1.044434,-0.08105469,13.24463,-6.530762,-41.25977,-108.1934,2.493896,153.1,-24.81667,-6.683333,-0.8,1
180149,-0.1557617,-0.6289062999999999,-0.34082029999999996,25.75684,-21.85059,-11.96289,-108.1219,2.032471,156.3464,47.33333,-10.425,91.73333,1
180459,-0.3144531,-1.437012,-0.425293,-91.24756000000001,-6.530762,46.02051,-109.6765,1.8951419999999999,159.5544,-13.65,-3.65,-2.175,1
180749,-0.12451169999999999,-0.6811522999999999,-0.359375,31.67725,-11.1084,27.52686,-106.6333,0.2636719,152.1002,45.06667,-10.80833,91.85,1
181060,-0.1386719,-1.25,-0.362793,32.34863,-4.882813,16.23535,-108.5229,-0.5163574,151.7322,43.825,-12.40833,94.60833,1
181340,-0.09228516,-0.9902344,-0.2504883,-7.751465,9.70459,-31.37207,-107.0618,-0.7525634999999999,153.858,43.225,-11.48333,92.64167,1
181640,0.1025391,-0.8012695,-0.18994139999999998,-13.18359,29.05273,-2.01416,-106.7322,0.06591797,157.879,45.525,-10.94167,91.41666,1
181979,0.30908199999999997,-1.126465,-0.5205078,-42.84668,23.68164,24.41406,-107.3804,2.653198,153.8635,-15.5,0.6416666999999999,-11.23333,1
182209,-0.19726559999999999,-0.9335937999999999,-0.1635742,5.67627,-20.93506,6.530762,-108.1165,-0.3131104,150.5951,-10.36667,-2.683333,1.825,1
182429,0.002441406,-0.6342772999999999,-0.3847656,24.71924,-7.263184,-32.40967,-107.6825,1.005249,152.8253,-15.16667,-8.141666,-5.641667,1
182639,0.1533203,-1.26416,-0.315918,45.28809,-24.6582,-38.08594,-109.2206,0.5218505999999999,158.9886,45.8,-11.65,90.36667,1
182879,0.03076172,-0.7143554999999999,-0.30957029999999996,28.01514,25.32959,12.51221,-106.5015,-2.537842,152.6001,-15.4,-2.508333,2.9333329999999997,1
183149,0.33251949999999997,-1.305176,-0.6884766,-39.18457,29.84619,29.41895,-106.9849,1.686401,151.8585,-11.28333,0.2083333,-6.466667,1
183369,-0.14257809999999999,-0.6894530999999999,-0.15478519999999998,-4.333496,-3.601074,10.98633,-106.8091,2.021484,150.249,43.45,-11.075,92.01667,1
183619,0.1484375,-0.8642578,-0.45068359999999996,-46.02051,-6.530762,-18.85986,-105.8038,-0.1647949,153.5065,-22.65,3.791667,13.91667,1
183860,0.15625,-0.7382812999999999,-0.1333008,-17.51709,45.53223,-7.385254,-107.9242,0.1043701,156.4563,43.95833,-11.25833,92.05833,1
184129,-0.07470703000000001,-0.8940429999999999,-0.22119139999999998,7.93457,-11.71875,34.5459,-105.1007,1.774292,150.8478,-25.54167,-5.316667,-3.283333,1
185479,-0.10839839999999999,-0.8510742,-0.22558589999999998,-15.99121,-15.01465,10.31494,-108.5339,0.32409669999999996,153.4515,-9.933333,-3.383333,1.816667,1
185780,-0.29492189999999996,-1.271484,-0.5102538999999999,-49.49951,-32.4707,-20.93506,-109.6545,-1.521606,156.2585,43.825,-11.325,90.575,1
186089,0.0004882813,-0.652832,-0.2314453,11.90186,27.16064,3.723145,-108.2593,-2.427979,156.0278,-10.5,-6.55,2.533333,1
186389,-0.6245117,-0.9116211,0.1025391,43.51807,33.99658,-22.33887,-108.468,1.653442,151.452,42.13334,-12.675,92.30833,1
186699,-0.1015625,-0.6347655999999999,-0.31005859999999996,16.05225,-10.13184,-10.74219,-108.8031,1.642456,152.7814,42.78333,-12.5,91.25833,1
186969,-0.05419922,-1.847656,-0.06542969,28.86963,-39.97803,-14.4043,-111.2366,-1.098633,155.484,-24.81667,-4.675,-1.525,1
187209,0.01806641,-0.7397461,-0.31835939999999996,13.30566,5.004883,4.394531,-108.3801,-2.27417,153.4515,40.575,-11.95833,91.18333,1
187549,-0.2041016,-0.5571288999999999,0.05322266,2.929688,0.42724609999999996,-13.67188,-108.0121,1.038208,152.298,-19.38333,-3.908333,0.4666667,1
187759,-0.07763672,-0.7460937999999999,-0.1855469,-4.943848,-5.615234,17.7002,-108.9624,1.51062,152.6056,-10.44167,-6.366667,2.675,1
187969,-0.07568359,-1.039063,-0.2827148,-7.751465,17.45605,-25.20752,-107.6221,-0.6481933999999999,152.4683,-28.34167,-1.808333,8.425,1
188179,-0.15039059999999999,-1.4291989999999999,-0.3032227,-10.25391,-19.83643,28.32031,-109.682,0.37353519999999996,153.847,-13.741670000000001,-3.308333,-1.275,1
188390,-0.09863281,-0.6103516,-0.3217773,22.27783,-8.178711,36.43799,-107.2485,-0.4724121,146.2555,38.63334,-11.93333,92.075,1
188639,-0.4760742,-0.9487304999999999,0.04248047,25.39063,2.624512,-24.78027,-108.913,1.378784,145.6458,-28.16667,-9.183333,-1.075,1
188889,-0.06933594,-0.6855469,-0.3110352,15.625,-10.92529,-7.93457,-108.6713,1.680908,149.87,40.40833,-13.1,93.175,1
189129,-0.3520508,-1.294434,-0.762207,-37.04834,-14.70947,-10.55908,-110.0391,-1.450195,151.0181,-15.68333,-1.066667,-8.366667,1
189399,0.2617188,-0.8833008,-0.1191406,17.8833,41.99219,1.403809,-106.1884,-0.08789063,151.496,-12.98333,-3.6,0.2833333,1
189620,0.01855469,-0.9980469,-0.2827148,-14.34326,6.835938,27.16064,-105.1501,1.521606,142.3444,37.01667,-11.45833,92.84167,1
189890,-0.008300781,-0.7915038999999999,-0.1801758,-9.399414,-18.9209,19.28711,-108.1604,1.109619,144.1406,37.39167,-13.35,95.68333,1
190190,-0.1601563,-0.949707,-0.1210938,2.075195,-6.225586,-38.81836,-107.3749,-0.33508299999999996,144.9207,-31.93333,-4.55,4.225,1
190429,0.1323242,-0.7866211,-0.1914063,-8.544922,30.51758,-13.79395,-108.8306,-0.37353519999999996,148.0463,-12.40833,-4.55,1.608333,1
190709,0.2045898,-0.9716796999999999,-0.5444336,-23.98682,-5.371094,0.3051758,-108.1604,1.955566,144.9371,37.975,-13.725,94.525,1
191019,0.02929688,-1.657227,-0.5610352,7.507324,-4.882813,-7.8125,-110.6927,-0.802002,141.8774,-12.4,-3.308333,-0.7083332999999999,1
191259,-0.0859375,-0.9179687999999999,-0.2382813,22.03369,0.9765625,-29.29688,-108.2593,1.378784,147.2552,-22.1,-13.25833,-4.333333,1
191579,0.3193359,-0.902832,-0.15625,-7.751465,32.59277,-13.24463,-107.9736,0.6481933999999999,151.04,-13.06667,-4.066667,-0.08333334,1
191810,0.01757813,-1.004883,-0.3427734,-20.20264,0.9765625,11.41357,-107.0123,2.741089,147.7002,39.54167,-12.875,93.13333,1
192059,-0.08642578000000001,-1.4760739999999999,-0.4008789,5.187988,25.75684,-36.43799,-109.27,-0.1757813,146.4258,-12.875,-3.783333,-0.8083332999999999,1
192299,-0.04785156,-0.6567383,-0.253418,13.12256,-10.74219,-0.3662109,-108.6877,2.60376,149.0021,-12.31667,-6.083333,0.8916666,1
192509,0.48144529999999996,-1.054688,0.1054688,54.56543,-27.58789,0.9765625,-109.0283,-0.7910155999999999,153.847,38.85,-13.33333,94.625,1
192749,0.12207029999999999,-0.8105469,-0.1723633,-9.70459,27.52686,-6.408691,-109.4897,-0.8679199,154.8083,-12.70833,-6.091667,3.633333,1
193029,0.1552734,-0.9165038999999999,-0.2226563,18.9209,-13.18359,36.07178,-106.2927,1.213989,153.7976,-19.725,-11.23333,-4.283333,1
193249,-0.1577148,-0.9233397999999999,-0.22558589999999998,1.281738,-22.76611,6.652832,-109.3195,-0.9228516,151.9464,-12.6,-4.083333,0.875,1
193520,0.01025391,-0.9663086,-0.31835939999999996,-28.19824,26.36719,-5.859375,-109.3799,-2.801514,154.4897,36.75,-14.21667,96.35833,1
193819,-0.3217773,-1.555176,-0.5839844,-29.23584,-11.2915,8.728026999999999,-113.3679,-0.4394531,154.693,-15.25,-4.408333,-1.1,1
194069,0.02978516,-0.7841796999999999,-0.41113279999999996,16.78467,46.75293,44.55566,-109.2261,-2.856445,139.7626,-14.44167,-6.591667,-2.7,1
194350,0.21728519999999998,-1.23584,-0.3945313,-36.49902,87.1582,-8.178711,-110.918,-2.48291,122.6514,19.66667,-14.55833,93.74167,1
194609,0.028808590000000002,-0.7714844,-0.2114258,15.86914,61.88965,18.85986,-109.3304,0.1483154,111.1981,-14.475,-7.025,2.075,1
194879,0.5585938,-1.294922,-0.18261719999999998,-11.84082,65.7959,27.16064,-108.5504,-4.614258,86.92932,-18.825,-5.266667,1.241667,1
195159,0.07177734,-0.8759766,-0.37353519999999996,15.68604,137.3291,33.3252,-104.859,-7.014771,52.3938,-1.816667,-6.041667,58.35833,1
195440,0.005859375,-1.177246,-0.08740234,-6.774902,100.3418,56.21338,-102.085,-2.889404,18.21533,7.666667,0.9333332999999999,40.525,1
195740,-0.07763672,-0.8461913999999999,-0.2880859,8.483887,87.09717,30.51758,-106.1829,2.752075,-10.79956,24.00833,6.15,35.99166,1
196079,-0.1791992,-0.8852538999999999,-0.4477539,-3.112793,-1.7700200000000001,-25.26855,-104.1174,1.213989,-28.00415,30.55833,4.741667,30.25833,1
196309,0.052734380000000004,-1.058594,-0.1713867,6.713867,39.91699,14.09912,-101.2555,-0.45593259999999997,-31.72302,-14.7,-2.675,0.55,1
196529,0.008300781,-0.8847655999999999,-0.2353516,7.080078,38.20801,7.8125,-101.0962,-1.966553,-39.55078,-15.00833,-5.041667,2.025,1
196739,-0.5664063,-1.659668,-0.1401367,-8.239746,-12.45117,-29.29688,-101.3489,1.955566,-45.63721,40.66667,3.1,28.55,1
196989,-0.02441406,-0.9272461,-0.07080078000000001,-15.38086,-22.33887,15.625,-101.7499,3.878174,-43.09387,-15.425,-2.733333,-1.9000000000000001,1
197259,-0.11669919999999999,-0.8662109,-0.2744141,13.42773,6.164551,-3.356934,-103.689,6.053467,-42.78076,-15.75833,-4.533333,0.06666667,1
197480,0.1157227,-0.9887695,-0.10888669999999999,-27.9541,-11.41357,-2.746582,-105.3094,2.37854,-37.74902,37.33333,3.758333,32.06667,1
197759,0.1450195,-0.8837891,-0.3066406,11.65771,-22.3999,5.615234,-105.4303,0.6921387,-32.45911,34.4,3.891667,32.025,1
198049,0.1679688,-1.178711,-0.40332029999999996,-32.22656,14.77051,29.66309,-106.2543,4.87793,-30.55847,-15.01667,0.2833333,-3.508333,1
198299,-0.01904297,-0.9008788999999999,-0.2319336,1.403809,-24.16992,6.591797,-107.5452,6.212769,-28.31177,-13.83333,-5.458333,3.458333,1
198569,-0.23681639999999998,-1.11084,-0.5878905999999999,-28.86963,-17.33398,-21.42334,-106.5674,3.065186,-25.88928,32.69167,4.058333,33.725,1
198839,0.05712891,-1.2104489999999999,-0.20996089999999998,0.3662109,-5.432129,7.080078,-105.26,3.169556,-23.05481,-14.09167,-2.308333,0.225,1
199109,0.03710938,-0.684082,-0.3037109,22.76611,-4.882813,24.10889,-104.436,2.318115,-23.37341,-15.13333,-6.416667,-2.733333,1
199389,0.24121089999999998,-1.255371,-0.2744141,-17.57813,45.28809,-5.554199,-108.078,3.026733,-27.37793,35.15,4.008333,35.06667,1
199670,-0.08251953000000001,-0.7109375,-0.359375,32.04346,2.685547,-19.53125,-106.897,5.707397,-24.38965,34.5,3.575,33.99166,1
200159,-0.07275391,-0.7988280999999999,-0.284668,9.643555,8.483887,-0.42724609999999996,-106.5015,1.680908,-24.49951,32.24166,3.558333,34.4,1
200489,-0.1318359,-1.33252,-0.1967773,10.92529,21.72852,22.88818,-106.7871,5.883179,-21.81885,34.04167,3.191667,33.10833,1
200749,-0.08935547,-0.8764647999999999,-0.23339839999999998,-19.47021,-27.70996,2.197266,-106.8695,5.20752,-18.28674,-14.19167,-4.65,0.2083333,1
200969,-0.22998049999999998,-0.9096679999999999,-0.5981445,-31.43311,15.50293,-1.220703,-107.7594,4.092407,-17.58362,31.23333,3.766667,35.025,1
202319,0.2958984,-1.038574,0.1044922,29.72412,8.850098,23.37646,-105.5237,3.988037,-10.41504,29.075,3.95,34.14167,1
202569,0.01611328,-0.8793945,-0.2001953,-4.333496,33.87451,-5.065918,-105.3589,2.839966,-14.56787,-14.75,-4.8,1.8,1
202759,0.0009765625,-0.7661133,-0.2392578,34.30176,-6.408691,21.66748,-103.0792,3.345337,-17.15515,-14.45,-5.375,-2.116667,1
202979,-0.07324219,-1.052246,-0.1694336,-4.089355,13.3667,-32.04346,-105.9961,4.075928,-14.98535,32.15,3.775,34.4,1
203229,0.08691406,-0.7739258,-0.253418,7.141113,-49.62158,-0.3662109,-106.3312,6.223755,-4.943848,-12.26667,-6.775,2.958333,1
203499,-0.041015630000000004,-0.9741211,-0.30175779999999996,-10.31494,10.43701,-8.911133,-105.2875,4.411011,-2.905884,-26.5,-2.441667,4.641667,1
203720,0.022460940000000002,-0.7949219,-0.190918,3.112793,14.52637,-14.5874,-105.705,4.905396,-3.6804200000000002,27.73333,3.858333,36.75834,1
203999,0.2680664,-0.9511719,-0.3662109,-18.73779,9.399414,13.67188,-106.7322,7.097168,-7.904663,32.38334,3.908333,36.23333,1
204289,0.3374023,-1.512695,-0.4287109,-31.18896,41.44287,-42.48047,-109.0283,3.537598,-12.14539,-12.25833,-3.85,-1.891667,1
204530,0.06542969,-0.6572266,-0.3422852,20.44678,-2.502441,-8.605957,-104.8645,4.438477,-4.828491,29.125,3.0,34.45,1
204819,-0.2084961,-1.259766,-0.2973633,18.61572,15.38086,10.00977,-105.5566,2.70813,-7.783813,29.69167,3.233333,34.65833,1
205109,0.1098633,-0.8828125,-0.2993164,4.882813,15.68604,14.64844,-105.7874,0.8624267999999999,-13.9801,-12.325,-3.0,0.48333329999999997,1
205359,-0.1289063,-1.11377,-0.30224609999999996,-30.88379,56.64063,-14.64844,-109.4019,2.565308,-21.81335,-15.35833,-3.941667,0.49166669999999996,1
205629,-0.1210938,-0.7583008,-0.3520508,19.53125,-4.760742,4.150391,-106.452,4.993286,-24.73572,40.65833,3.083333,35.04167,1
205940,-0.03076172,-1.006836,-0.15039059999999999,-14.4043,-37.04834,-16.11328,-107.3474,3.504639,-17.41333,35.61666,4.008333,35.91667,1
206179,0.105957,-0.7729492,-0.27783199999999997,18.98193,-1.6479489999999999,-8.850098,-106.7487,2.680664,-13.21106,-12.68333,-5.6,2.158333,1
206389,0.13525389999999998,-1.033203,-0.2910156,-0.793457,-40.71045,15.99121,-104.7601,5.509644,-6.871948,-22.775,-4.85,0.4583333,1
206600,0.01171875,-0.7900391,-0.1850586,0.8544921999999999,-5.554199,20.62988,-105.6885,5.009766,-2.548828,30.84167,4.133333,35.9,1
206839,0.04003906,-0.684082,-0.3359375,12.75635,3.540039,-24.41406,-105.8698,6.377563,-1.96106,-16.96667,-12.03333,-4.866667,1
207119,0.3354492,-0.8041992,-0.030273440000000002,50.10986,-4.089355,-3.723145,-107.8693,4.279175,0.6976317999999999,-21.46667,-4.825,1.5,1
207350,0.04296875,-0.7675780999999999,-0.2919922,13.3667,-9.70459,1.037598,-106.4301,1.1920169999999999,1.680908,26.14167,4.066667,36.29167,1
207620,-0.3359375,-1.037109,-0.1831055,10.31494,-4.089355,-19.28711,-107.3474,4.790039,3.669434,27.89167,4.708333,37.11666,1
207919,-0.07958984,-0.8627929999999999,-0.22119139999999998,-8.483887,-5.493164,15.56396,-106.7926,3.960571,4.718628,-13.01667,-5.108333,1.208333,1
208169,-0.37988279999999996,-1.009277,-0.7124022999999999,-22.27783,-1.953125,-9.338379,-107.1661,3.345337,4.493408,-11.85833,-0.008333334000000001,2.2,1
208439,0.048828130000000004,-0.7822266,-0.1694336,-3.112793,16.47949,-10.98633,-104.447,2.219238,6.377563,24.79167,4.408333,35.93333,1
208709,0.03613281,-0.8291016,-0.2197266,18.24951,-22.52197,26.06201,-102.6837,4.268188,6.828003,-17.95833,-10.15833,-5.058333,1
208979,-0.09960938,-1.102051,-0.25,-25.57373,-26.18408,-3.234863,-105.6995,3.696899,7.767334,-13.91667,-3.7,-1.233333,1
209260,-0.1030273,-0.9179687999999999,-0.2524414,10.00977,-1.281738,-27.89307,-104.5514,3.834229,11.12915,24.175,4.375,36.25834,1
209540,0.2163086,-0.8627929999999999,-0.2041016,4.577637,25.20752,-16.23535,-105.8917,2.900391,13.23853,22.81667,4.591667,37.88334,1
209840,0.03613281,-0.9360352,-0.1933594,-0.793457,-11.71875,18.9209,-103.7439,4.411011,9.959106,25.98333,4.4,35.34167,1
210179,-0.20507809999999999,-0.9326171999999999,-0.19384769999999998,8.422852,-21.97266,9.765625,-106.9519,2.69165,7.201538,26.46667,5.258333,38.08333,1
210409,-0.04736328,-0.7954102,-0.3549805,20.01953,5.126953,-8.056641,-105.5896,5.114136,11.35437,-15.175,-5.266667,0.5416667,1
210629,0.2739258,-1.945801,-0.3110352,-27.34375,-21.60645,4.577637,-106.9794,2.515869,11.08521,-18.475,-2.8,0.75,1
210839,0.01464844,-0.7963867,-0.24560549999999998,1.586914,7.629395,-6.04248,-104.7656,0.9283446999999999,7.981567,24.86667,3.991667,35.8,1
211079,0.08349609,-1.03125,-0.2714844,-22.58301,-13.00049,8.300781,-104.3811,3.817749,10.33813,-23.41667,-3.525,1.783333,1
211349,-0.03466797,-0.8925780999999999,-0.10107419999999999,-9.521484,15.44189,-18.24951,-106.8091,2.680664,8.618774,-15.275,-3.408333,-0.7583333,1
211569,-0.03173828,-0.8325195,-0.2885742,-3.2958979999999998,-20.26367,16.23535,-107.6715,4.65271,10.89844,-11.56667,-5.825,2.9,1
211789,0.1796875,-1.543945,-0.3037109,25.14648,-28.44238,-10.92529,-109.2371,3.543091,12.02454,-16.45,-3.466667,-0.8916666,1
212060,0.04394531,-0.7836913999999999,-0.2612305,7.080078,-9.338379,-6.103516,-106.9794,1.378784,14.22729,22.90833,4.666667,38.00834,1
212369,-0.2734375,-1.292969,-0.18212889999999998,-4.943848,5.126953,-13.48877,-107.655,5.317383,15.3479,25.76667,5.208333,38.45833,1
212639,-0.25,-0.8173828,-0.2426758,-4.150391,-14.5874,9.460449,-107.1881,3.55957,14.01306,-13.50833,-4.791667,2.366667,1
212879,-0.1953125,-0.9121094,-0.4702148,-21.1792,11.23047,-12.146,-105.7159,2.136841,16.25977,-25.48333,-5.625,-0.15,1
213219,0.060546880000000004,-0.8833008,-0.21875000000000003,-1.6479489999999999,34.97314,-11.35254,-106.106,2.521362,12.26074,-13.425,-4.808333,0.15,1
213479,0.1098633,-0.9047852,-0.19433589999999998,-8.789063,-13.42773,14.64844,-104.469,4.042969,11.0083,27.275,5.183333,35.05833,1
213759,-0.175293,-0.9243163999999999,-0.03222656,2.502441,42.05322,-3.78418,-107.8198,3.581543,9.206543,-16.55,-4.35,-0.9666665999999999,1
214009,-0.13476559999999999,-0.7431641,-0.34179689999999996,27.03857,0.1831055,-10.13184,-106.5729,5.646973,10.46997,-15.9,-4.066667,1.625,1
214309,0.2675781,-0.6982421999999999,-0.002441406,-0.42724609999999996,7.69043,-5.310059,-104.2273,2.109375,15.58411,-19.29167,-4.416667,-2.1,1
214689,0.06738281,-0.9013671999999999,-0.1357422,11.1084,-12.93945,23.31543,-103.1451,2.230225,15.75989,23.95,5.183333,33.35833,1
214949,-0.4467773,-0.8393554999999999,0.008300781,10.43701,8.117676,-16.54053,-104.024,3.257446,10.3656,-23.08333,-5.425,-1.166667,1
215189,-0.09375000000000001,-0.7578125,-0.3598633,4.760742,-10.19287,0.793457,-105.5347,4.9273679999999995,13.15613,27.21667,6.358333,34.75,1
215429,-0.331543,-1.243652,-0.6801758,-40.22217,-19.59229,-13.24463,-106.3312,2.411499,14.21082,-11.24167,-0.04166667,-1.858333,1
215669,0.041015630000000004,-0.7910155999999999,-0.2011719,2.563477,-0.7324219,-8.666992,-103.9691,1.043701,14.17786,23.84167,5.791667,34.45,1
215919,0.02294922,-0.9882812999999999,-0.1689453,6.164551,-25.57373,26.42822,-103.3649,3.499146,16.34216,-21.29167,-11.26667,-4.483333,1
216200,-0.1157227,-1.054199,-0.20605469999999998,-21.30127,-20.1416,4.577637,-105.6226,1.999512,15.19409,24.90833,6.333333,36.10833,1
216499,-0.07861328000000001,-0.9594727,-0.21875000000000003,-2.563477,12.39014,-25.26855,-104.8535,2.543335,17.51221,-27.60833,-9.291667,-3.016667,1
216800,0.17041019999999998,-0.8857421999999999,-0.184082,6.652832,21.3623,-10.92529,-106.0675,2.202759,20.29724,22.30833,6.05,37.26667,1
217109,0.10839839999999999,-0.934082,-0.12744139999999998,9.82666,-4.760742,24.35303,-103.5352,3.78479,20.22034,-21.58333,-9.566667,-3.575,1
217439,-0.09667969,-1.033691,-0.22119139999999998,-18.85986,-22.2168,6.286621,-106.6113,2.367554,18.42407,-15.0,-4.75,-2.141667,1
217709,-0.07470703000000001,-0.9291992,-0.2851563,-4.02832,12.26807,-21.72852,-106.0181,3.010254,20.18738,23.9,6.15,36.86666,1
219089,-0.3549805,-1.021484,-0.6933594,-40.95459,-9.765625,-8.117676,-107.6385,1.768799,19.03931,-13.89167,-0.9333332999999999,0.4333333,1
219329,0.08349609,-0.8500977,-0.1850586,0.6713867,13.18359,-8.666992,-105.249,0.8404541,20.83557,-14.36667,-5.058333,0.6916667,1
219639,0.2421875,-0.9179687999999999,-0.49023439999999996,-19.40918,-0.9155272999999999,5.187988,-104.5129,3.394775,21.96716,25.26667,5.558333,34.55,1
219939,-0.1401367,-0.8984375,-0.1733398,-5.737305,-2.563477,11.90186,-106.2323,2.191772,20.19836,25.08333,6.241667,36.325,1
220259,-0.2475586,-0.9062500000000001,-0.6416016,-39.24561,7.507324,0.42724609999999996,-106.9849,1.571045,20.54443,-12.6,-0.8333332999999999,4.583333,1
220479,-0.03808594,-1.165527,-0.2480469,8.972168,11.35254,12.146,-107.2375,2.471924,21.85181,-13.53333,-3.225,-0.05833333,1
220700,-0.03222656,-0.7338867,-0.3212891,18.67676,-22.82715,24.23096,-105.8093,1.691895,19.81934,24.45833,5.991667,34.55,1
220939,-0.40283199999999997,-1.141602,-0.11865229999999999,14.95361,15.25879,-13.61084,-107.0782,3.735352,18.17139,-17.90833,-3.05,1.925,1
221209,-0.159668,-0.8706054999999999,-0.2026367,-3.601074,-18.9209,6.774902,-106.6388,2.329102,19.02832,-13.75833,-4.8,0.44166669999999997,1
221429,-0.06445313,-0.7055663999999999,-0.3691406,24.4751,13.00049,-11.96289,-106.5839,4.092407,21.41235,-16.775,-6.183333,-1.475,1
221639,-0.01269531,-1.030762,-0.1674805,-1.403809,-3.601074,8.728026999999999,-106.1554,1.680908,21.88477,24.14167,6.575,34.675,1
221889,-0.02929688,-0.8081054999999999,-0.2568359,3.78418,10.74219,-4.577637,-104.8315,0.1757813,19.18213,-13.65833,-6.766667,2.333333,1
222129,0.1254883,-1.307617,-0.5283203,-25.93994,38.14697,27.03857,-105.6555,4.048462,21.26953,26.11667,6.375,33.38334,1
222369,-0.041015630000000004,-1.066406,-0.24462889999999998,-16.47949,-36.68213,-2.441406,-105.6116,1.834717,21.52222,-14.76667,-4.408333,-2.25,1
222650,-0.05615234,-0.9038086,-0.21728519999999998,19.9585,8.544922,-20.38574,-104.1064,3.114624,24.91699,23.025,6.191667,33.99166,1
222959,0.1884766,-0.9858397999999999,-0.1708984,1.159668,25.57373,-15.19775,-105.0952,1.593018,26.43311,-14.03333,-3.575,0.17500000000000002,1
223250,0.04003906,-0.9062500000000001,-0.1958008,3.540039,-19.22607,25.93994,-103.5791,2.334595,23.7854,24.01667,5.9,33.45,1
223559,-0.15087889999999998,-1.078125,-0.2006836,-10.49805,-24.4751,3.051758,-105.4138,1.9006349999999999,22.52747,-14.06667,-3.85,-1.216667,1
223859,-0.06787109,-0.887207,-0.2148438,12.02393,20.08057,-23.98682,-104.0295,3.24646,22.648320000000002,25.275,5.7,33.48333,1
224170,0.1113281,-1.136719,-0.21386719999999998,-3.173828,18.73779,2.13623,-104.6777,2.081909,23.72498,24.25,5.616667,34.24166,1
224439,-0.004394531,-0.8334961,-0.2993164,6.225586,-8.239746,3.173828,-104.4031,0.4284668,21.19812,-13.225,-5.375,2.95,1
224719,-0.2841797,-1.054199,-0.11279299999999999,-0.1831055,-16.41846,-29.72412,-104.6448,3.477173,23.91174,-18.65,-4.008333,-0.5,1
224930,-0.06347656,-0.8652344,-0.2602539,7.141113,-26.24512,1.8310549999999999,-105.0458,4.251709,30.09155,23.68333,5.691667,35.625,1
225179,-0.1362305,-0.9189453,-0.5410155999999999,-31.86035,14.95361,-6.103516,-104.6283,2.015991,31.06934,-21.41667,0.6333333,6.708333,1
225449,-0.1103516,-1.114746,-0.15625,17.82227,-0.793457,14.64844,-104.9963,1.746826,32.56897,-13.60833,-2.691667,0.5,1
225659,-0.007324219000000001,-0.8188477,-0.2617188,6.591797,8.850098,0.9765625,-104.6667,-0.4229736,28.43811,-12.80833,-5.558333,2.691667,1
225879,-0.2768555,-1.157227,-0.04833984,10.00977,-14.03809,-37.10938,-104.848,2.219238,27.68555,23.96667,4.675,32.93333,1
226129,-0.10498049999999999,-0.8920897999999999,-0.1708984,-16.05225,7.202148,20.99609,-104.9359,2.026978,26.559450000000002,-14.325,-4.783333,0.3833333,1
226369,-0.2460938,-0.934082,-0.6772461,-35.5835,3.90625,-4.02832,-106.1279,1.620483,25.66406,-13.866670000000001,0.09166667,1.983333,1
226670,0.05957031,-0.7958984,-0.1567383,-0.1831055,14.52637,-6.286621,-104.9963,0.37353519999999996,27.10327,22.86667,5.175,33.33333,1
226989,0.20556639999999998,-1.014648,-0.5581054999999999,-30.57861,-1.953125,6.469727,-104.9414,3.361816,26.77917,26.20833,5.833333,32.75,1
227249,-0.02734375,-1.27002,-0.3076172,-1.525879,10.74219,-14.22119,-105.1447,1.318359,24.41711,-14.84167,-3.375,-1.716667,1
227489,-0.125,-0.765625,-0.2802734,34.24072,1.220703,-23.62061,-104.881,3.158569,26.66931,24.575,5.691667,32.46667,1
227799,-0.08447266,-1.23584,-0.21435549999999998,11.04736,-7.995605,2.197266,-104.9194,2.230225,30.34424,-13.94167,-2.391667,-0.7416667,1
228099,0.03076172,-0.7426758,-0.3525391,20.44678,-19.34814,14.16016,-104.024,0.7745361,28.927,22.23333,5.616667,32.60833,1
228410,0.03466797,-1.155762,-0.22851559999999999,6.896973,25.14648,-14.83154,-104.6887,1.5325929999999999,27.69653,-15.36667,-2.941667,-2.175,1
228739,-0.13134769999999998,-0.7768554999999999,-0.2758789,26.18408,7.8125,-23.86475,-104.8755,3.554077,27.97668,-14.96667,-11.35,-6.016667,1
229049,-0.04296875,-1.29834,-0.21875000000000003,9.643555,-0.793457,7.69043,-106.1884,2.164307,30.81116,-13.19167,-2.825,-0.15833329999999998,1
229280,-0.04931641,-0.7773437999999999,-0.3115234,24.23096,-21.66748,20.44678,-105.1062,1.30188,27.83386,22.65,5.366667,35.49166,1
229529,-0.2602539,-0.9116211,-0.09277344,0.3662109,-11.59668,-26.48926,-106.6278,2.235718,27.44934,-23.95,-6.575,-1.625,1
229769,-0.1606445,-0.7841796999999999,-0.2226563,-10.55908,-12.51221,14.83154,-106.6937,1.3623049999999999,28.00964,-13.33333,-5.341667,1.275,1
229979,-0.3295898,-0.8696288999999999,-0.7602538999999999,-53.40576,15.93018,2.01416,-106.4191,0.6591796999999999,28.25684,20.7,4.858333,37.74166,1
230219,0.01220703,-1.313477,-0.265625,5.981445,17.27295,-2.807617,-105.8643,1.691895,29.26208,-14.075,-2.908333,-0.3916667,1
230499,0.03125,-0.8222655999999999,-0.3056641,7.568359,15.38086,7.995605,-106.0126,0.4229736,25.26306,-14.425,-4.958333,2.516667,1
230719,-0.3007813,-0.859375,0.06738281,10.68115,3.356934,-18.73779,-106.1115,2.730103,23.42285,-21.625,-5.325,1.0,1
230999,-0.05029297,-0.7797852,-0.35791019999999996,6.408691,-6.347656,2.380371,-107.8473,3.466187,26.83411,23.53333,5.075,37.075,1
231259,-0.2954102,-1.3979489999999999,-0.6801758,-8.056641,-46.69189,-23.68164,-109.1766,1.203003,26.97693,-13.24167,-2.15,-7.35,1
231539,0.0004882813,-0.8051758,-0.2084961,2.807617,18.31055,-5.310059,-106.3586,0.4998779,27.41089,-12.975,-6.433333,3.941667,1
231809,-0.1811523,-1.433594,-0.25537109999999996,-4.455566,-4.516602,-20.1416,-106.496,3.729858,26.09802,25.15833,4.35,33.675,1
232079,-0.1176758,-0.8999022999999999,-0.12060549999999999,4.821777,-23.37646,8.972168,-105.9741,1.576538,28.11401,-14.09167,-4.025,0.35000000000000003,1
232329,-0.11425779999999999,-0.9111328,-0.4863281,-25.87891,14.09912,-9.643555,-105.4742,0.9887695,30.17395,22.10833,3.858333,34.44167,1
232629,0.08398438,-0.8071288999999999,-0.1337891,0.793457,25.87891,-1.7700200000000001,-105.2161,0.04394531,30.98694,22.4,3.491667,33.675,1
232910,0.05322266,-0.9760742,-0.27832029999999996,-14.16016,-15.80811,11.59668,-104.2657,2.120361,28.38318,25.775,3.3,31.99167,1
233210,-0.125,-1.025391,-0.16650389999999998,0.5493163999999999,-12.75635,5.859375,-105.8478,1.104126,26.21338,27.05833,3.716667,33.10833,1
233549,-0.06884766,-0.9692383,-0.1811523,6.103516,26.00098,-18.73779,-104.0295,1.752319,25.65308,-20.21667,-10.16667,-4.091667,1
233790,0.2353516,-0.7363280999999999,-0.07958984,-6.469727,20.75195,4.882813,-105.7214,1.016235,26.40015,-20.00833,-4.5,-1.283333,1
233999,0.05371094,-0.8847655999999999,-0.22119139999999998,-2.868652,9.460449,-12.51221,-105.7654,-0.08239746,25.4718,-15.425,-5.725,0.5416667,1
234209,0.20605469999999998,-0.9116211,-0.4702148,-20.20264,-10.98633,5.615234,-104.5404,2.296143,27.54822,28.125,2.783333,31.70833,1
234449,0.005371094000000001,-0.8867187999999999,-0.04931641,5.310059,29.23584,-5.859375,-105.5676,1.746826,25.10376,-16.86667,-2.825,-0.6083333,1
235829,-0.1401367,-0.8408203,-0.20947269999999998,-10.62012,-16.41846,15.44189,-105.4413,2.5872800000000002,27.62512,29.35833,3.425,33.075,1
236109,-0.08740234,-0.8193359,-0.2568359,28.68652,3.601074,-27.64893,-103.7164,3.070679,29.34448,-15.64167,-11.61667,-6.916667,1
236349,-0.1210938,-1.190918,-0.1733398,16.90674,5.187988,0.6713867,-104.3591,1.939087,31.80542,25.78333,2.816667,31.71667,1
236589,0.08789063,-0.8515625,-0.24072269999999998,4.394531,-0.6713867,-2.075195,-104.6448,-0.37353519999999996,30.53101,25.65,2.683333,30.325,1
236869,-0.1728516,-0.9804687999999999,-0.1640625,0.4882813,-4.882813,-23.01025,-106.2927,2.1698,31.61865,-18.75,-4.758333,-0.6083333,1
237169,-0.04785156,-0.8027344,-0.315918,7.995605,-1.953125,10.37598,-107.4738,3.422241,33.1073,-11.70833,-5.566667,3.625,1
237440,0.3925781,-0.9565429999999999,0.015136720000000001,39.97803,-12.57324,6.9580079999999995,-107.4628,1.428223,34.36523,23.70833,5.091667,33.91667,1
237710,0.08056641,-0.8378905999999999,-0.1801758,1.7700200000000001,10.0708,-13.00049,-106.3806,0.2416992,33.88184,-14.09167,-4.916667,0.85,1
237959,0.2983398,-0.9663086,-0.4541016,-20.56885,-9.58252,11.1084,-104.9963,2.290649,36.02417,24.15833,5.208333,33.15833,1
238269,-0.1401367,-0.7939453,-0.2006836,-5.493164,-6.9580079999999995,11.53564,-106.6772,1.450195,33.03589,24.74167,6.066667,34.71667,1
238539,-0.005371094000000001,-0.7163086,-0.3427734,27.34375,8.117676,-22.76611,-105.9686,2.526855,34.00269,-14.65,-12.725,-6.466667,1
238819,-0.1435547,-1.293945,-0.2246094,18.24951,-19.22607,-1.8310549999999999,-106.864,1.5271000000000001,39.19373,-13.91667,-2.766667,-0.325,1
239030,-0.044921880000000004,-0.7148437999999999,-0.3291016,17.57813,-31.86035,19.04297,-104.8315,0.6591796999999999,40.73181,19.40833,5.075,34.05833,1
239269,-0.42675779999999996,-1.200684,0.005371094000000001,14.95361,2.319336,-17.63916,-106.2872,3.186035,41.07239,-25.45,-7.125,-0.775,1
239539,-0.1928711,-0.8193359,-0.22558589999999998,-21.54541,-20.20264,9.094238,-106.8365,2.180786,42.22595,-12.91667,-4.966667,1.15,1
239749,-0.02441406,-0.9174804999999999,-0.2324219,12.45117,10.31494,-22.03369,-106.5179,2.416992,45.61523,-15.54167,-11.65833,-6.3,1
239969,-0.20556639999999998,-1.2416989999999999,-0.3037109,10.00977,-9.277344,-0.42724609999999996,-106.9684,0.8459473,50.13611,14.23333,5.116667,38.90833,1
240209,0.03466797,-0.7783203,-0.3203125,13.00049,0.0,-0.42724609999999996,-106.7157,-2.312622,49.14185,-11.7,-4.541667,3.125,1
240469,-0.4682617,-1.083496,-0.03515625,15.44189,-12.87842,-25.5127,-106.7432,1.241455,49.83948,-27.2,-8.591666,-1.525,1
240759,-0.13476559999999999,-0.7841796999999999,-0.22216799999999998,-17.02881,-9.155273,17.27295,-108.6053,0.5218505999999999,51.31165,-11.975,-5.875,0.5583332999999999,1
240989,-0.4931641,-1.177246,-0.9296875,-51.3916,-20.62988,-11.23047,-111.8188,0.38452149999999996,53.56934,11.6,5.116667,43.28333,1
241279,0.01269531,-0.7094727,-0.2509766,-2.13623,-24.10889,-14.70947,-107.9297,-0.7415771,60.35889,-13.68333,-6.658333,1.491667,1
241589,0.08056641,-1.337402,-0.5947266,-28.44238,44.31152,26.42822,-109.1656,2.807007,65.29175,10.46667,5.1,46.35,1
241899,-0.08056641,-0.7475586,-0.2851563,7.080078,-37.10938,4.943848,-109.2371,1.032715,66.70349,-11.625,-5.95,4.066667,1
242189,0.17041019999999998,-1.230469,0.16699219999999998,95.15381000000001,-46.75293,-22.3999,-108.7482,-2.076416,72.27356,4.425,2.083333,49.24166,1
242499,0.0234375,-0.7543945,-0.2768555,9.521484,20.20264,8.911133,-107.3419,-3.02124,66.00586,-14.23333,-3.658333,3.566667,1
242809,-0.3452148,-0.5410155999999999,0.1616211,15.31982,-11.71875,-24.96338,-106.5894,-0.027465820000000002,61.59485,-18.4,-3.016667,3.291667,1
243109,-0.1157227,-0.5786133,-0.31787109999999996,27.16064,-7.263184,-12.08496,-108.1714,0.3570557,67.68677,-17.61667,-5.091667,-1.183333,1
243479,0.02001953,-0.7875977,-0.17871089999999998,-9.155273,38.0249,-1.525879,-107.8143,-1.664429,66.12671,5.8,2.841667,47.925,1
243739,-0.03222656,-0.7133788999999999,-0.23681639999999998,27.16064,-20.08057,33.44727,-106.853,-0.6976317999999999,62.73743,-18.45833,-10.46667,-5.683333,1
243989,-0.3857422,-0.7749022999999999,0.10058589999999999,28.56445,-10.00977,-32.89795,-107.655,0.04394531,60.97412,-21.00833,-4.966667,2.875,1
244199,-0.140625,-0.590332,-0.38037109999999996,21.05713,-9.765625,-12.45117,-108.9075,0.8459473,65.36316,7.116667,3.591667,48.65833,1
244439,0.024902340000000002,-1.6635739999999999,-0.3461914,41.07666,-60.48584,-29.60205,-111.5222,-1.906128,68.4668,-20.61667,-5.208333,-5.675,1
244689,0.04199219,-0.7294921999999999,-0.22998049999999998,7.202148,6.469727,-1.464844,-109.292,-2.455444,67.57141,4.491667,2.141667,50.31667,1
244939,0.296875,-1.116211,-0.7280272999999999,-49.25537,-4.516602,-0.793457,-109.0173,1.241455,66.79138,-11.925,2.8,3.833333,1
245210,-0.15917969999999998,-0.7744141,-0.1953125,-10.13184,-22.3999,8.850098,-110.2094,-0.3186035,64.56665,7.308333,3.5,50.91667,1
245519,0.10107419999999999,-1.821777,0.06542969,75.92773,-35.46143,-1.403809,-111.5332,-2.702637,70.04883,-25.56667,-5.783333,-2.441667,1
245819,-0.004882813000000001,-0.7172852,-0.29345699999999997,13.06152,18.18848,5.249023,-109.5227,-3.922119,65.71472,4.175,1.658333,49.94167,1
246129,-0.07226563,-0.6611328,0.11865229999999999,-5.065918,-0.06103516,-20.87402,-109.4568,-0.9997558999999999,63.85254,-19.9,-4.675,-0.8916666,1
246449,-0.1889648,-0.5893554999999999,-0.3774414,26.55029,-1.7700200000000001,-8.056641,-110.5334,-0.4724121,61.78162,-19.38333,-6.683333,-1.4583329999999999,1
246719,-0.1074219,-1.475098,-0.31835939999999996,11.53564,-38.81836,21.54541,-110.1379,-1.8457029999999999,66.2915,4.408333,1.5,51.8,1
246999,0.03710938,-0.6801758,-0.22167969999999998,11.96289,-7.141113,-0.6713867,-107.5946,-3.817749,65.83008,-11.79167,-5.275,2.683333,1
